subid,gender,trial,run,conds,offer_pro,offer_self,offer_tp,RT,choice,
101,1,1,1,2,8,6,1,1.056,1
101,1,2,1,2,7,6,2,0.725,1
101,1,3,1,4,13,1,1,0.839,1
101,1,4,1,3,8,1,6,0.952,1
101,1,5,1,4,11,2,2,1.702,1
101,1,6,1,1,6,4,5,1.386,1
101,1,7,1,4,13,1,1,1.092,1
101,1,8,1,1,6,4,5,0.899,1
101,1,9,1,3,7,2,6,0.939,1
101,1,10,1,1,5,5,5,0.954,1
101,1,11,1,1,6,4,5,1,1
101,1,12,1,4,11,2,2,0.94,1
101,1,13,1,3,7,1,7,1.09,1
101,1,14,1,3,7,1,7,1.441,1
101,1,15,1,2,7,7,1,0.792,1
101,1,16,1,2,7,7,1,0.629,1
101,1,17,1,4,12,2,1,1.255,1
101,1,18,1,3,8,1,6,0.949,1
101,1,19,1,1,6,5,4,1.519,1
101,1,20,1,4,11,2,2,1.052,1
101,1,21,1,4,12,2,1,0.998,1
101,1,22,1,1,5,5,5,1.102,1
101,1,23,1,1,6,5,4,1.086,1
101,1,24,1,2,7,6,2,1.227,1
101,1,25,1,3,8,1,6,1.637,1
101,1,26,1,2,7,7,1,1.381,1
101,1,27,1,2,8,6,1,0.977,1
101,1,28,1,4,12,1,2,0.714,1
101,1,29,1,1,5,5,5,0.777,1
101,1,30,1,3,7,1,7,0.881,1
101,1,31,1,3,7,1,7,0.844,1
101,1,32,1,2,7,6,2,0.885,1
101,1,33,1,1,5,5,5,1.938,1
101,1,34,1,1,6,5,4,1.027,1
101,1,35,1,4,13,1,1,0.744,1
101,1,36,1,2,7,7,1,0.959,1
101,1,37,1,3,7,2,6,1.426,1
101,1,38,1,4,12,1,2,1.02,1
101,1,39,1,3,7,2,6,1.162,1
101,1,40,1,2,8,6,1,0.622,1
101,1,1,2,1,6,5,4,0.594,1
101,1,2,2,3,7,1,7,0.734,1
101,1,3,2,1,5,5,5,0.84,1
101,1,4,2,3,7,1,7,1.153,1
101,1,5,2,4,11,2,2,0.621,1
101,1,6,2,2,7,7,1,0.816,1
101,1,7,2,2,7,6,2,0.565,1
101,1,8,2,3,8,1,6,1.123,1
101,1,9,2,1,6,4,5,2.138,1
101,1,10,2,4,11,2,2,0.716,1
101,1,11,2,4,13,1,1,1.026,1
101,1,12,2,2,8,6,1,0.744,1
101,1,13,2,2,8,6,1,0.993,1
101,1,14,2,4,13,1,1,0.94,1
101,1,15,2,2,7,7,1,0.774,1
101,1,16,2,2,8,6,1,1.121,1
101,1,17,2,4,12,1,2,1.204,1
101,1,18,2,3,7,2,6,0.944,1
101,1,19,2,3,7,1,7,2.311,1
101,1,20,2,4,12,2,1,1.052,1
101,1,21,2,2,7,6,2,0.66,1
101,1,22,2,3,7,2,6,0.546,1
101,1,23,2,3,7,1,7,0.621,1
101,1,24,2,2,7,7,1,0.973,1
101,1,25,2,3,7,2,6,1.312,1
101,1,26,2,4,11,2,2,0.575,1
101,1,27,2,1,5,5,5,1.377,1
101,1,28,2,4,13,1,1,0.958,1
101,1,29,2,1,6,5,4,0.849,1
101,1,30,2,4,12,2,1,1.098,1
101,1,31,2,1,6,5,4,0.924,1
101,1,32,2,3,8,1,6,1.371,1
101,1,33,2,1,5,5,5,1.1,1
101,1,34,2,2,7,6,2,1.163,1
101,1,35,2,2,7,7,1,0.612,1
101,1,36,2,4,12,1,2,0.769,1
101,1,37,2,3,8,1,6,0.932,1
101,1,38,2,1,6,4,5,0.827,1
101,1,39,2,1,6,4,5,0.983,1
101,1,40,2,1,5,5,5,0.536,1
102,1,1,1,4,11,2,2,0.499,1
102,1,2,1,2,7,7,1,0.55,1
102,1,3,1,4,11,2,2,0.541,1
102,1,4,1,4,13,1,1,0.403,2
102,1,5,1,2,7,6,2,0.406,1
102,1,6,1,1,6,5,4,0.61,1
102,1,7,1,3,7,1,7,0.411,2
102,1,8,1,3,7,1,7,0.621,1
102,1,9,1,4,13,1,1,0.451,1
102,1,10,1,3,8,1,6,0.495,1
102,1,11,1,3,7,2,6,0.942,1
102,1,12,1,2,8,6,1,0.571,1
102,1,13,1,1,5,5,5,0.423,1
102,1,14,1,2,8,6,1,0.575,1
102,1,15,1,1,6,4,5,0.454,1
102,1,16,1,3,7,1,7,0.493,1
102,1,17,1,2,7,7,1,0.56,1
102,1,18,1,4,12,1,2,0.51,1
102,1,19,1,2,8,6,1,0.506,1
102,1,20,1,3,7,2,6,0.428,1
102,1,21,1,3,7,1,7,0.367,2
102,1,22,1,4,12,2,1,0.409,1
102,1,23,1,4,11,2,2,0.483,1
102,1,24,1,4,13,1,1,0.549,1
102,1,25,1,3,7,2,6,1.158,1
102,1,26,1,3,8,1,6,0.552,1
102,1,27,1,1,5,5,5,0.42,1
102,1,28,1,2,7,6,2,0.392,1
102,1,29,1,3,8,1,6,0.91,1
102,1,30,1,1,6,5,4,0.403,1
102,1,31,1,1,6,5,4,0.786,1
102,1,32,1,4,12,2,1,1.658,1
102,1,33,1,1,5,5,5,0.44,1
102,1,34,1,2,7,7,1,0.551,1
102,1,35,1,1,6,4,5,0.485,1
102,1,36,1,2,7,6,2,0.548,1
102,1,37,1,2,7,7,1,0.92,1
102,1,38,1,4,12,1,2,0.461,1
102,1,39,1,1,6,4,5,0.484,1
102,1,40,1,1,5,5,5,0.462,1
102,1,1,2,1,6,4,5,0.563,1
102,1,2,2,2,8,6,1,0.479,1
102,1,3,2,3,8,1,6,1.116,2
102,1,4,2,4,13,1,1,0.894,1
102,1,5,2,4,11,2,2,0.447,1
102,1,6,2,2,7,6,2,0.469,1
102,1,7,2,4,13,1,1,0.434,1
102,1,8,2,2,7,7,1,0.43,1
102,1,9,2,1,6,4,5,0.401,1
102,1,10,2,4,11,2,2,0.758,1
102,1,11,2,1,5,5,5,0.424,1
102,1,12,2,4,12,2,1,0.71,1
102,1,13,2,3,7,2,6,0.447,1
102,1,14,2,3,7,1,7,0.638,1
102,1,15,2,2,7,7,1,0.644,1
102,1,16,2,2,7,6,2,0.416,1
102,1,17,2,2,7,7,1,0.387,1
102,1,18,2,1,6,4,5,1.29,1
102,1,19,2,4,11,2,2,0.837,1
102,1,20,2,2,8,6,1,0.489,1
102,1,21,2,3,7,1,7,0.402,1
102,1,22,2,1,6,5,4,0.659,1
102,1,23,2,4,12,2,1,0.973,1
102,1,24,2,3,8,1,6,2.624,1
102,1,25,2,1,5,5,5,0.67,1
102,1,26,2,1,6,5,4,0.816,1
102,1,27,2,4,12,1,2,0.743,1
102,1,28,2,3,8,1,6,0.526,1
102,1,29,2,2,7,6,2,0.967,1
102,1,30,2,4,13,1,1,0.515,1
102,1,31,2,3,7,1,7,0.415,1
102,1,32,2,1,5,5,5,0.526,1
102,1,33,2,1,5,5,5,0.497,1
102,1,34,2,3,7,1,7,0.585,1
102,1,35,2,3,7,2,6,0.511,1
102,1,36,2,2,7,7,1,0.576,1
102,1,37,2,3,7,2,6,0.515,1
102,1,38,2,2,8,6,1,0.471,1
102,1,39,2,4,12,1,2,0.608,1
102,1,40,2,1,6,5,4,0.543,1
103,1,1,1,3,7,1,7,0.384,2
103,1,2,1,4,11,2,2,0.323,1
103,1,3,1,3,7,1,7,0.546,2
103,1,4,1,1,6,5,4,0.787,1
103,1,5,1,4,11,2,2,0.669,1
103,1,6,1,3,8,1,6,0.487,2
103,1,7,1,2,7,7,1,0.357,1
103,1,8,1,1,5,5,5,0.598,1
103,1,9,1,4,13,1,1,0.751,2
103,1,10,1,2,7,6,2,0.704,1
103,1,11,1,4,13,1,1,0.286,2
103,1,12,1,2,8,6,1,0.335,1
103,1,13,1,4,12,1,2,0.347,2
103,1,14,1,2,8,6,1,0.433,1
103,1,15,1,4,12,2,1,0.475,2
103,1,16,1,3,7,2,6,0.622,2
103,1,17,1,1,6,4,5,0.683,1
103,1,18,1,3,7,1,7,0.429,2
103,1,19,1,1,5,5,5,0.513,1
103,1,20,1,2,7,7,1,0.789,1
103,1,21,1,1,6,5,4,1.07,1
103,1,22,1,2,8,6,1,0.643,1
103,1,23,1,3,7,2,6,0.908,2
103,1,24,1,2,7,6,2,0.914,1
103,1,25,1,4,11,2,2,0.452,1
103,1,26,1,3,7,1,7,0.527,2
103,1,27,1,4,13,1,1,0.705,2
103,1,28,1,4,12,2,1,0.327,2
103,1,29,1,1,6,5,4,0.671,1
103,1,30,1,4,12,1,2,0.72,2
103,1,31,1,3,7,2,6,0.505,2
103,1,32,1,3,8,1,6,0.733,2
103,1,33,1,2,7,7,1,0.428,1
103,1,34,1,3,8,1,6,2.106,2
103,1,35,1,2,7,6,2,0.464,1
103,1,36,1,1,5,5,5,0.633,1
103,1,37,1,2,7,7,1,0.405,1
103,1,38,1,1,6,4,5,0.546,1
103,1,39,1,1,6,4,5,0.39,1
103,1,40,1,1,5,5,5,0.635,1
103,1,1,2,1,6,4,5,0.471,1
103,1,2,2,4,13,1,1,0.368,2
103,1,3,2,2,8,6,1,0.497,1
103,1,4,2,1,6,4,5,0.966,1
103,1,5,2,3,8,1,6,2.239,2
103,1,6,2,2,7,6,2,0.547,1
103,1,7,2,4,11,2,2,1.711,1
103,1,8,2,3,7,2,6,1.607,2
103,1,9,2,3,7,1,7,0.554,2
103,1,10,2,4,13,1,1,0.597,2
103,1,11,2,1,5,5,5,0.725,1
103,1,12,2,3,7,1,7,1.008,2
103,1,13,2,1,6,4,5,0.509,1
103,1,14,2,4,11,2,2,0.4,1
103,1,15,2,3,8,1,6,0.388,2
103,1,16,2,2,7,7,1,0.961,1
103,1,17,2,4,12,2,1,0.494,2
103,1,18,2,2,7,7,1,0.359,1
103,1,19,2,2,7,6,2,0.503,1
103,1,20,2,1,6,5,4,0.582,1
103,1,21,2,3,8,1,6,0.449,2
103,1,22,2,2,7,7,1,0.469,1
103,1,23,2,4,11,2,2,0.412,1
103,1,24,2,3,7,1,7,0.593,2
103,1,25,2,1,5,5,5,0.44,1
103,1,26,2,4,12,2,1,0.426,2
103,1,27,2,2,8,6,1,0.595,1
103,1,28,2,1,6,5,4,0.572,1
103,1,29,2,4,12,1,2,0.639,2
103,1,30,2,1,5,5,5,1.088,1
103,1,31,2,2,7,6,2,0.417,1
103,1,32,2,4,13,1,1,0.414,2
103,1,33,2,4,12,1,2,0.443,2
103,1,34,2,1,5,5,5,0.667,1
103,1,35,2,3,7,1,7,0.722,2
103,1,36,2,3,7,2,6,0.455,2
103,1,37,2,2,7,7,1,0.56,1
103,1,38,2,3,7,2,6,0.745,1
103,1,39,2,1,6,5,4,0.935,1
103,1,40,2,2,8,6,1,0.905,1
104,1,1,1,4,13,1,1,0.836,2
104,1,2,1,3,8,1,6,0.515,2
104,1,3,1,3,7,2,6,0.656,2
104,1,4,1,2,8,6,1,0.571,2
104,1,5,1,3,7,1,7,0.545,2
104,1,6,1,1,6,4,5,0.87,2
104,1,7,1,4,11,2,2,0.917,2
104,1,8,1,1,6,4,5,0.558,2
104,1,9,1,4,13,1,1,0.638,2
104,1,10,1,4,11,2,2,0.618,2
104,1,11,1,4,12,2,1,0.592,2
104,1,12,1,1,5,5,5,0.581,1
104,1,13,1,2,7,6,2,0.55,2
104,1,14,1,1,6,4,5,0.881,2
104,1,15,1,4,11,2,2,0.69,2
104,1,16,1,1,6,5,4,0.666,2
104,1,17,1,4,12,2,1,0.768,2
104,1,18,1,2,7,7,1,0.823,2
104,1,19,1,2,7,7,1,0.668,2
104,1,20,1,1,5,5,5,0.504,1
104,1,21,1,2,7,6,2,0.686,2
104,1,22,1,3,7,1,7,0.48,2
104,1,23,1,3,8,1,6,0.599,2
104,1,24,1,2,7,7,1,0.532,2
104,1,25,1,3,8,1,6,0.614,2
104,1,26,1,3,7,1,7,0.674,2
104,1,27,1,1,6,5,4,0.757,2
104,1,28,1,2,8,6,1,0.718,2
104,1,29,1,3,7,1,7,0.638,2
104,1,30,1,1,5,5,5,0.538,1
104,1,31,1,2,7,6,2,1,2
104,1,32,1,4,12,1,2,0.828,2
104,1,33,1,2,7,7,1,0.766,2
104,1,34,1,4,13,1,1,0.616,2
104,1,35,1,2,8,6,1,1.239,2
104,1,36,1,4,12,1,2,1.086,2
104,1,37,1,1,5,5,5,0.581,1
104,1,38,1,3,7,2,6,0.576,2
104,1,39,1,1,6,5,4,0.819,2
104,1,40,1,3,7,2,6,1.049,2
104,1,1,2,3,7,1,7,0.476,2
104,1,2,2,1,6,5,4,0.618,2
104,1,3,2,4,11,2,2,0.583,2
104,1,4,2,2,7,7,1,0.516,2
104,1,5,2,4,11,2,2,0.778,2
104,1,6,2,1,5,5,5,0.792,1
104,1,7,2,1,6,4,5,0.58,2
104,1,8,2,2,7,6,2,0.521,2
104,1,9,2,2,8,6,1,0.528,2
104,1,10,2,1,5,5,5,0.854,1
104,1,11,2,4,13,1,1,0.574,2
104,1,12,2,4,13,1,1,0.649,2
104,1,13,2,4,12,1,2,1.212,2
104,1,14,2,3,7,1,7,0.659,2
104,1,15,2,2,8,6,1,0.643,2
104,1,16,2,3,8,1,6,0.42,2
104,1,17,2,1,6,5,4,1.225,2
104,1,18,2,2,7,7,1,0.83,2
104,1,19,2,2,8,6,1,1.323,2
104,1,20,2,4,12,2,1,0.714,2
104,1,21,2,3,7,2,6,0.636,2
104,1,22,2,4,11,2,2,0.755,2
104,1,23,2,1,6,5,4,0.945,2
104,1,24,2,1,5,5,5,0.731,1
104,1,25,2,3,7,1,7,1,2
104,1,26,2,2,7,6,2,0.801,2
104,1,27,2,1,6,4,5,0.596,2
104,1,28,2,4,13,1,1,0.566,2
104,1,29,2,3,7,2,6,1.186,2
104,1,30,2,1,6,4,5,0.97,2
104,1,31,2,2,7,7,1,0.875,2
104,1,32,2,3,7,1,7,0.79,2
104,1,33,2,2,7,6,2,1.069,2
104,1,34,2,2,7,7,1,0.922,2
104,1,35,2,3,7,2,6,0.801,2
104,1,36,2,3,8,1,6,0.539,2
104,1,37,2,4,12,2,1,0.658,2
104,1,38,2,4,12,1,2,0.989,2
104,1,39,2,1,5,5,5,1.452,1
104,1,40,2,3,8,1,6,1.015,2
105,1,1,1,2,8,6,1,0.39,1
105,1,2,1,2,7,6,2,0.297,1
105,1,3,1,4,13,1,1,0.395,1
105,1,4,1,3,8,1,6,0.703,1
105,1,5,1,4,11,2,2,0.309,1
105,1,6,1,1,6,4,5,0.404,1
105,1,7,1,4,13,1,1,0.42,1
105,1,8,1,1,6,4,5,0.402,1
105,1,9,1,3,7,2,6,0.44,1
105,1,10,1,1,5,5,5,0.261,1
105,1,11,1,1,6,4,5,0.307,1
105,1,12,1,4,11,2,2,0.413,1
105,1,13,1,3,7,1,7,0.415,1
105,1,14,1,3,7,1,7,0.475,1
105,1,15,1,2,7,7,1,0.238,1
105,1,16,1,2,7,7,1,0.339,1
105,1,17,1,4,12,2,1,0.299,1
105,1,18,1,3,8,1,6,0.561,1
105,1,19,1,1,6,5,4,0.27,1
105,1,20,1,4,11,2,2,1.011,1
105,1,21,1,4,12,2,1,0.602,1
105,1,22,1,1,5,5,5,0.322,1
105,1,23,1,1,6,5,4,0.427,1
105,1,24,1,2,7,6,2,0.378,1
105,1,25,1,3,8,1,6,0.596,1
105,1,26,1,2,7,7,1,0.355,1
105,1,27,1,2,8,6,1,0.677,1
105,1,28,1,4,12,1,2,1.163,1
105,1,29,1,1,5,5,5,0.582,1
105,1,30,1,3,7,1,7,0.317,1
105,1,31,1,3,7,1,7,0.618,1
105,1,32,1,2,7,6,2,0.723,1
105,1,33,1,1,5,5,5,0.257,1
105,1,34,1,1,6,5,4,0.28,1
105,1,35,1,4,13,1,1,0.632,1
105,1,36,1,2,7,7,1,0.359,1
105,1,37,1,3,7,2,6,0.475,1
105,1,38,1,4,12,1,2,0.443,1
105,1,39,1,3,7,2,6,0.291,1
105,1,1,2,1,6,5,4,0.53,1
105,1,2,2,3,7,1,7,0.441,1
105,1,3,2,1,5,5,5,0.341,1
105,1,4,2,3,7,1,7,0.358,1
105,1,5,2,4,11,2,2,0.385,1
105,1,6,2,2,7,7,1,0.376,1
105,1,7,2,2,7,6,2,0.422,1
105,1,8,2,3,8,1,6,1.647,1
105,1,9,2,1,6,4,5,0.618,1
105,1,10,2,4,11,2,2,0.334,1
105,1,11,2,4,13,1,1,1.552,2
105,1,12,2,2,8,6,1,0.357,1
105,1,13,2,2,8,6,1,0.48,1
105,1,14,2,4,13,1,1,0.44,1
105,1,15,2,2,7,7,1,0.407,1
105,1,16,2,2,8,6,1,0.477,1
105,1,17,2,4,12,1,2,0.473,1
105,1,18,2,3,7,2,6,1.222,1
105,1,19,2,3,7,1,7,0.52,1
105,1,20,2,4,12,2,1,0.404,1
105,1,21,2,2,7,6,2,1.429,1
105,1,22,2,3,7,2,6,0.736,1
105,1,23,2,3,7,1,7,0.33,1
105,1,24,2,2,7,7,1,0.812,1
105,1,25,2,3,7,2,6,0.488,1
105,1,26,2,4,11,2,2,0.413,1
105,1,27,2,1,5,5,5,0.297,1
105,1,28,2,4,13,1,1,0.354,1
105,1,29,2,1,6,5,4,0.452,1
105,1,30,2,4,12,2,1,0.314,1
105,1,31,2,1,6,5,4,0.436,1
105,1,32,2,3,8,1,6,0.62,1
105,1,33,2,1,5,5,5,0.309,1
105,1,34,2,2,7,6,2,0.607,1
105,1,35,2,2,7,7,1,0.351,1
105,1,36,2,4,12,1,2,0.453,1
105,1,37,2,3,8,1,6,2.06,1
105,1,38,2,1,6,4,5,0.343,1
105,1,39,2,1,6,4,5,0.477,1
105,1,40,2,1,5,5,5,0.265,1
107,1,1,1,3,7,1,7,0.774,1
107,1,2,1,4,11,2,2,0.78,1
107,1,3,1,3,7,1,7,1.336,1
107,1,4,1,1,6,5,4,0.899,1
107,1,5,1,4,11,2,2,1.018,1
107,1,6,1,3,8,1,6,0.741,1
107,1,7,1,2,7,7,1,1.342,1
107,1,8,1,1,5,5,5,0.715,1
107,1,9,1,4,13,1,1,1.04,1
107,1,10,1,2,7,6,2,0.892,1
107,1,11,1,4,13,1,1,0.959,1
107,1,12,1,2,8,6,1,0.647,1
107,1,13,1,4,12,1,2,0.948,1
107,1,14,1,2,8,6,1,0.622,1
107,1,15,1,4,12,2,1,0.771,1
107,1,16,1,3,7,2,6,0.856,1
107,1,17,1,1,6,4,5,1.145,1
107,1,18,1,3,7,1,7,1.198,1
107,1,19,1,1,5,5,5,1.018,1
107,1,20,1,2,7,7,1,1.026,1
107,1,21,1,1,6,5,4,1.214,1
107,1,22,1,2,8,6,1,0.909,1
107,1,23,1,3,7,2,6,0.949,1
107,1,24,1,2,7,6,2,1.017,1
107,1,25,1,4,11,2,2,1.107,1
107,1,26,1,3,7,1,7,1.071,1
107,1,27,1,4,13,1,1,0.423,1
107,1,28,1,4,12,2,1,1.396,1
107,1,29,1,1,6,5,4,1.527,1
107,1,30,1,4,12,1,2,0.672,1
107,1,31,1,3,7,2,6,1.101,1
107,1,32,1,3,8,1,6,0.756,1
107,1,33,1,2,7,7,1,0.808,1
107,1,34,1,3,8,1,6,1.015,1
107,1,35,1,2,7,6,2,0.535,1
107,1,36,1,1,5,5,5,0.934,1
107,1,37,1,2,7,7,1,1.614,1
107,1,38,1,1,6,4,5,2.875,1
107,1,39,1,1,6,4,5,1.186,1
107,1,40,1,1,5,5,5,1.952,1
107,1,1,2,1,6,4,5,0.624,1
107,1,2,2,4,13,1,1,0.826,2
107,1,3,2,2,8,6,1,1.295,1
107,1,4,2,1,6,4,5,1.54,1
107,1,5,2,3,8,1,6,0.648,1
107,1,6,2,2,7,6,2,0.839,1
107,1,7,2,4,11,2,2,0.472,1
107,1,8,2,3,7,2,6,0.719,1
107,1,9,2,3,7,1,7,0.894,1
107,1,10,2,4,13,1,1,0.668,1
107,1,11,2,1,5,5,5,0.783,1
107,1,12,2,3,7,1,7,1.054,1
107,1,13,2,1,6,4,5,1.283,1
107,1,14,2,4,11,2,2,1.768,1
107,1,15,2,3,8,1,6,0.837,1
107,1,16,2,2,7,7,1,0.749,1
107,1,17,2,4,12,2,1,1.315,1
107,1,18,2,2,7,7,1,0.822,1
107,1,19,2,2,7,6,2,0.702,1
107,1,20,2,1,6,5,4,1.381,1
107,1,21,2,3,8,1,6,0.534,1
107,1,22,2,2,7,7,1,0.713,1
107,1,23,2,4,11,2,2,1.126,1
107,1,24,2,3,7,1,7,0.643,1
107,1,25,2,1,5,5,5,0.59,1
107,1,26,2,4,12,2,1,0.827,1
107,1,27,2,2,8,6,1,0.614,1
107,1,28,2,1,6,5,4,1.431,1
107,1,29,2,4,12,1,2,0.76,1
107,1,30,2,1,5,5,5,1.005,1
107,1,31,2,2,7,6,2,0.849,1
107,1,32,2,4,13,1,1,0.755,1
107,1,33,2,4,12,1,2,0.756,1
107,1,34,2,1,5,5,5,0.989,1
107,1,35,2,3,7,1,7,2.334,1
107,1,36,2,3,7,2,6,2.828,1
107,1,37,2,2,7,7,1,0.746,1
107,1,38,2,3,7,2,6,0.816,1
107,1,39,2,1,6,5,4,1.309,1
107,1,40,2,2,8,6,1,1.848,1
108,1,1,1,4,13,1,1,0.635,2
108,1,2,1,3,8,1,6,0.729,2
108,1,3,1,3,7,2,6,1.061,2
108,1,4,1,2,8,6,1,0.694,2
108,1,5,1,3,7,1,7,0.911,2
108,1,6,1,1,6,4,5,0.857,1
108,1,7,1,4,11,2,2,0.714,2
108,1,8,1,1,6,4,5,0.524,1
108,1,9,1,4,13,1,1,0.828,2
108,1,10,1,4,11,2,2,0.749,2
108,1,11,1,4,12,2,1,0.417,2
108,1,12,1,1,5,5,5,1.021,1
108,1,13,1,2,7,6,2,0.626,1
108,1,14,1,1,6,4,5,0.886,1
108,1,15,1,4,11,2,2,0.63,2
108,1,16,1,1,6,5,4,0.75,1
108,1,17,1,4,12,2,1,0.71,2
108,1,18,1,2,7,7,1,0.851,1
108,1,19,1,2,7,7,1,0.697,1
108,1,20,1,1,5,5,5,0.718,1
108,1,21,1,2,7,6,2,1.069,1
108,1,22,1,3,7,1,7,0.536,2
108,1,23,1,3,8,1,6,0.892,2
108,1,24,1,2,7,7,1,1.083,1
108,1,25,1,3,8,1,6,1.481,2
108,1,26,1,3,7,1,7,1.027,2
108,1,27,1,1,6,5,4,0.604,1
108,1,28,1,2,8,6,1,0.664,2
108,1,29,1,3,7,1,7,0.618,2
108,1,30,1,1,5,5,5,0.598,1
108,1,31,1,2,7,6,2,0.835,1
108,1,32,1,4,12,1,2,1.441,2
108,1,33,1,2,7,7,1,1.451,1
108,1,34,1,4,13,1,1,1.002,2
108,1,35,1,2,8,6,1,0.997,2
108,1,37,1,1,5,5,5,0.438,1
108,1,38,1,3,7,2,6,0.489,2
108,1,39,1,1,6,5,4,0.491,2
108,1,40,1,3,7,2,6,0.539,2
108,1,1,2,3,7,1,7,0.46,2
108,1,2,2,1,6,5,4,0.468,1
108,1,3,2,4,11,2,2,0.675,2
108,1,4,2,2,7,7,1,0.571,1
108,1,5,2,4,11,2,2,0.855,2
108,1,6,2,1,5,5,5,0.793,1
108,1,7,2,1,6,4,5,0.487,2
108,1,8,2,2,7,6,2,0.655,1
108,1,9,2,2,8,6,1,0.507,1
108,1,10,2,1,5,5,5,0.539,1
108,1,11,2,4,13,1,1,0.588,2
108,1,12,2,4,13,1,1,1.467,2
108,1,13,2,4,12,1,2,0.555,2
108,1,14,2,3,7,1,7,0.713,2
108,1,15,2,2,8,6,1,0.51,1
108,1,16,2,3,8,1,6,0.528,2
108,1,17,2,1,6,5,4,0.508,1
108,1,18,2,2,7,7,1,0.626,1
108,1,19,2,2,8,6,1,1.568,1
108,1,20,2,4,12,2,1,0.541,2
108,1,21,2,3,7,2,6,1.032,2
108,1,23,2,1,6,5,4,0.67,1
108,1,24,2,1,5,5,5,0.627,1
108,1,25,2,3,7,1,7,0.178,2
108,1,26,2,2,7,6,2,0.491,1
108,1,27,2,1,6,4,5,0.35,1
108,1,28,2,4,13,1,1,0.028,2
108,1,29,2,3,7,2,6,0.556,2
108,1,30,2,1,6,4,5,1.638,1
108,1,31,2,2,7,7,1,0.548,1
108,1,32,2,3,7,1,7,0.708,2
108,1,33,2,2,7,6,2,1.05,1
108,1,34,2,2,7,7,1,1.028,1
108,1,35,2,3,7,2,6,1.282,2
108,1,37,2,4,12,2,1,0.481,2
108,1,38,2,4,12,1,2,0.902,2
108,1,39,2,1,5,5,5,0.506,1
108,1,40,2,3,8,1,6,0.884,2
109,1,1,1,2,8,6,1,1.916,2
109,1,2,1,2,7,6,2,1.663,2
109,1,3,1,4,13,1,1,0.97,2
109,1,4,1,3,8,1,6,0.725,2
109,1,5,1,4,11,2,2,1.091,2
109,1,6,1,1,6,4,5,1.394,1
109,1,7,1,4,13,1,1,1.242,2
109,1,8,1,1,6,4,5,1.048,1
109,1,9,1,3,7,2,6,1.014,1
109,1,10,1,1,5,5,5,1.307,1
109,1,11,1,1,6,4,5,0.913,1
109,1,12,1,4,11,2,2,0.651,2
109,1,13,1,3,7,1,7,1.085,1
109,1,14,1,3,7,1,7,0.873,1
109,1,15,1,2,7,7,1,0.66,2
109,1,16,1,2,7,7,1,0.722,2
109,1,17,1,4,12,2,1,0.489,2
109,1,18,1,3,8,1,6,2.279,1
109,1,19,1,1,6,5,4,0.46,1
109,1,20,1,4,11,2,2,0.713,2
109,1,21,1,4,12,2,1,0.632,2
109,1,22,1,1,5,5,5,0.737,1
109,1,23,1,1,6,5,4,0.913,1
109,1,24,1,2,7,6,2,0.8,2
109,1,25,1,3,8,1,6,0.729,1
109,1,26,1,2,7,7,1,0.649,2
109,1,27,1,2,8,6,1,0.996,2
109,1,28,1,4,12,1,2,1.169,2
109,1,29,1,1,5,5,5,1.508,1
109,1,30,1,3,7,1,7,1.627,1
109,1,31,1,3,7,1,7,1.146,1
109,1,32,1,2,7,6,2,1.489,2
109,1,33,1,1,5,5,5,1.383,1
109,1,34,1,1,6,5,4,0.614,1
109,1,35,1,4,13,1,1,0.486,2
109,1,36,1,2,7,7,1,0.806,2
109,1,37,1,3,7,2,6,0.761,1
109,1,38,1,4,12,1,2,0.873,2
109,1,39,1,3,7,2,6,0.554,1
109,1,40,1,2,8,6,1,0.898,2
109,1,1,2,1,6,5,4,1.478,1
109,1,2,2,3,7,1,7,2.157,1
109,1,3,2,1,5,5,5,1.425,1
109,1,4,2,3,7,1,7,2.747,1
109,1,5,2,4,11,2,2,0.661,2
109,1,6,2,2,7,7,1,1.349,2
109,1,7,2,2,7,6,2,0.97,2
109,1,8,2,3,8,1,6,0.7,1
109,1,9,2,1,6,4,5,0.614,1
109,1,10,2,4,11,2,2,0.875,2
109,1,11,2,4,13,1,1,0.693,2
109,1,12,2,2,8,6,1,0.617,2
109,1,13,2,2,8,6,1,0.587,2
109,1,14,2,4,13,1,1,0.437,2
109,1,15,2,2,7,7,1,0.755,2
109,1,16,2,2,8,6,1,0.625,2
109,1,17,2,4,12,1,2,0.525,2
109,1,18,2,3,7,2,6,0.649,1
109,1,19,2,3,7,1,7,0.523,1
109,1,20,2,4,12,2,1,0.736,2
109,1,21,2,2,7,6,2,1.082,2
109,1,22,2,3,7,2,6,0.564,1
109,1,23,2,3,7,1,7,0.558,1
109,1,24,2,2,7,7,1,0.799,2
109,1,25,2,3,7,2,6,0.556,1
109,1,26,2,4,11,2,2,0.434,2
109,1,27,2,1,5,5,5,0.541,1
109,1,28,2,4,13,1,1,0.511,2
109,1,29,2,1,6,5,4,0.599,1
109,1,30,2,4,12,2,1,0.83,2
109,1,31,2,1,6,5,4,0.969,1
109,1,32,2,3,8,1,6,0.616,1
109,1,33,2,1,5,5,5,0.617,1
109,1,34,2,2,7,6,2,1.044,2
109,1,35,2,2,7,7,1,0.531,2
109,1,36,2,4,12,1,2,0.617,2
109,1,37,2,3,8,1,6,0.888,1
109,1,38,2,1,6,4,5,0.492,1
109,1,39,2,1,6,4,5,0.794,1
109,1,40,2,1,5,5,5,0.47,1
110,1,1,1,4,11,2,2,0.565,1
110,1,2,1,2,7,7,1,0.542,1
110,1,3,1,4,11,2,2,0.46,1
110,1,4,1,4,13,1,1,0.561,2
110,1,5,1,2,7,6,2,0.566,1
110,1,6,1,1,6,5,4,0.515,1
110,1,7,1,3,7,1,7,0.81,2
110,1,8,1,3,7,1,7,0.708,1
110,1,9,1,4,13,1,1,0.509,2
110,1,10,1,3,8,1,6,0.689,2
110,1,11,1,3,7,2,6,0.698,1
110,1,12,1,2,8,6,1,0.642,1
110,1,13,1,1,5,5,5,0.499,1
110,1,14,1,2,8,6,1,0.454,1
110,1,15,1,1,6,4,5,0.403,1
110,1,16,1,3,7,1,7,0.661,1
110,1,17,1,2,7,7,1,0.66,1
110,1,18,1,4,12,1,2,0.785,2
110,1,19,1,2,8,6,1,0.965,1
110,1,20,1,3,7,2,6,0.56,1
110,1,21,1,3,7,1,7,0.506,1
110,1,22,1,4,12,2,1,0.542,1
110,1,23,1,4,11,2,2,0.499,1
110,1,24,1,4,13,1,1,0.785,2
110,1,25,1,3,7,2,6,1,1
110,1,26,1,3,8,1,6,0.66,1
110,1,27,1,1,5,5,5,0.601,1
110,1,28,1,2,7,6,2,0.54,1
110,1,29,1,3,8,1,6,0.608,1
110,1,30,1,1,6,5,4,0.506,1
110,1,31,1,1,6,5,4,0.798,1
110,1,32,1,4,12,2,1,0.705,2
110,1,33,1,1,5,5,5,1.035,1
110,1,34,1,2,7,7,1,0.995,1
110,1,35,1,1,6,4,5,0.682,1
110,1,36,1,2,7,6,2,0.476,1
110,1,37,1,2,7,7,1,0.407,1
110,1,38,1,4,12,1,2,0.606,2
110,1,39,1,1,6,4,5,0.669,1
110,1,40,1,1,5,5,5,0.439,1
110,1,1,2,1,6,4,5,0.6,1
110,1,2,2,2,8,6,1,0.563,1
110,1,3,2,3,8,1,6,0.431,1
110,1,4,2,4,13,1,1,0.473,2
110,1,5,2,4,11,2,2,0.616,1
110,1,6,2,2,7,6,2,0.469,1
110,1,7,2,4,13,1,1,0.565,2
110,1,8,2,2,7,7,1,1.034,1
110,1,9,2,1,6,4,5,0.739,1
110,1,10,2,4,11,2,2,0.481,1
110,1,11,2,1,5,5,5,0.477,1
110,1,12,2,4,12,2,1,1.017,1
110,1,13,2,3,7,2,6,0.455,1
110,1,14,2,3,7,1,7,0.363,1
110,1,15,2,2,7,7,1,0.36,1
110,1,16,2,2,7,6,2,0.528,1
110,1,17,2,2,7,7,1,0.623,1
110,1,18,2,1,6,4,5,0.902,1
110,1,19,2,4,11,2,2,0.38,1
110,1,20,2,2,8,6,1,0.371,1
110,1,21,2,3,7,1,7,0.495,1
110,1,22,2,1,6,5,4,0.597,1
110,1,23,2,4,12,2,1,0.939,2
110,1,24,2,3,8,1,6,0.808,1
110,1,25,2,1,5,5,5,0.642,1
110,1,26,2,1,6,5,4,0.952,1
110,1,27,2,4,12,1,2,0.566,2
110,1,28,2,3,8,1,6,0.492,1
110,1,29,2,2,7,6,2,0.531,1
110,1,30,2,4,13,1,1,0.462,2
110,1,31,2,3,7,1,7,0.7,1
110,1,32,2,1,5,5,5,0.523,1
110,1,33,2,1,5,5,5,0.653,1
110,1,34,2,3,7,1,7,1.341,1
110,1,35,2,3,7,2,6,0.539,1
110,1,36,2,2,7,7,1,1.274,1
110,1,37,2,3,7,2,6,0.694,1
110,1,38,2,2,8,6,1,0.794,1
110,1,39,2,4,12,1,2,1.161,2
110,1,40,2,1,6,5,4,0.852,1
111,1,1,1,3,7,1,7,0.677,2
111,1,2,1,4,11,2,2,1.444,2
111,1,3,1,3,7,1,7,0.503,2
111,1,4,1,1,6,5,4,0.435,1
111,1,5,1,4,11,2,2,0.346,1
111,1,6,1,3,8,1,6,1.157,2
111,1,7,1,2,7,7,1,0.397,1
111,1,8,1,1,5,5,5,0.54,1
111,1,9,1,4,13,1,1,0.969,2
111,1,10,1,2,7,6,2,0.637,1
111,1,11,1,4,13,1,1,0.471,2
111,1,12,1,2,8,6,1,0.639,1
111,1,13,1,4,12,1,2,0.469,2
111,1,14,1,2,8,6,1,0.43,1
111,1,15,1,4,12,2,1,0.411,2
111,1,16,1,3,7,2,6,0.432,2
111,1,17,1,1,6,4,5,0.336,1
111,1,18,1,3,7,1,7,0.422,2
111,1,19,1,1,5,5,5,0.505,1
111,1,20,1,2,7,7,1,0.474,1
111,1,21,1,1,6,5,4,0.758,1
111,1,22,1,2,8,6,1,0.508,1
111,1,23,1,3,7,2,6,0.685,2
111,1,24,1,2,7,6,2,0.457,1
111,1,25,1,4,11,2,2,0.395,1
111,1,26,1,3,7,1,7,0.504,2
111,1,27,1,4,13,1,1,0.488,2
111,1,28,1,4,12,2,1,0.692,1
111,1,29,1,1,6,5,4,0.537,1
111,1,30,1,4,12,1,2,0.72,2
111,1,31,1,3,7,2,6,0.574,2
111,1,32,1,3,8,1,6,0.389,2
111,1,33,1,2,7,7,1,0.44,1
111,1,34,1,3,8,1,6,1.151,2
111,1,35,1,2,7,6,2,1.088,1
111,1,36,1,1,5,5,5,0.534,1
111,1,37,1,2,7,7,1,0.535,1
111,1,38,1,1,6,4,5,0.675,1
111,1,39,1,1,6,4,5,0.522,1
111,1,40,1,1,5,5,5,0.328,1
111,1,1,2,1,6,4,5,0.52,1
111,1,2,2,4,13,1,1,0.529,2
111,1,3,2,2,8,6,1,0.783,1
111,1,4,2,1,6,4,5,0.668,1
111,1,5,2,3,8,1,6,0.551,2
111,1,6,2,2,7,6,2,0.422,1
111,1,7,2,4,11,2,2,0.495,2
111,1,8,2,3,7,2,6,0.823,2
111,1,9,2,3,7,1,7,0.517,2
111,1,10,2,4,13,1,1,0.427,2
111,1,11,2,1,5,5,5,0.423,1
111,1,12,2,3,7,1,7,0.678,2
111,1,13,2,1,6,4,5,0.427,1
111,1,14,2,4,11,2,2,0.496,2
111,1,15,2,3,8,1,6,0.62,2
111,1,16,2,2,7,7,1,0.412,1
111,1,17,2,4,12,2,1,0.395,2
111,1,18,2,2,7,7,1,0.573,1
111,1,19,2,2,7,6,2,0.806,1
111,1,20,2,1,6,5,4,0.525,1
111,1,21,2,3,8,1,6,0.453,2
111,1,22,2,2,7,7,1,0.472,1
111,1,23,2,4,11,2,2,0.565,2
111,1,24,2,3,7,1,7,0.442,2
111,1,25,2,1,5,5,5,1.07,1
111,1,26,2,4,12,2,1,1.011,2
111,1,27,2,2,8,6,1,0.47,1
111,1,28,2,1,6,5,4,0.542,1
111,1,29,2,4,12,1,2,0.639,2
111,1,30,2,1,5,5,5,0.565,1
111,1,31,2,2,7,6,2,1.033,1
111,1,32,2,4,13,1,1,0.77,2
111,1,33,2,4,12,1,2,0.395,2
111,1,34,2,1,5,5,5,1.004,1
111,1,35,2,3,7,1,7,0.773,2
111,1,37,2,2,7,7,1,1.722,1
111,1,38,2,3,7,2,6,1.023,2
111,1,39,2,1,6,5,4,0.476,1
111,1,40,2,2,8,6,1,0.768,1
112,1,1,1,4,13,1,1,0.471,2
112,1,2,1,3,8,1,6,1.268,1
112,1,3,1,3,7,2,6,0.681,1
112,1,4,1,2,8,6,1,0.322,1
112,1,5,1,3,7,1,7,0.346,1
112,1,6,1,1,6,4,5,0.381,1
112,1,7,1,4,11,2,2,0.382,2
112,1,8,1,1,6,4,5,0.32,1
112,1,9,1,4,13,1,1,0.296,2
112,1,10,1,4,11,2,2,0.329,2
112,1,11,1,4,12,2,1,0.421,2
112,1,12,1,1,5,5,5,0.297,1
112,1,13,1,2,7,6,2,0.31,1
112,1,14,1,1,6,4,5,0.323,1
112,1,15,1,4,11,2,2,0.289,2
112,1,16,1,1,6,5,4,0.305,1
112,1,17,1,4,12,2,1,0.306,2
112,1,18,1,2,7,7,1,0.296,1
112,1,19,1,2,7,7,1,0.308,1
112,1,20,1,1,5,5,5,0.346,1
112,1,21,1,2,7,6,2,0.345,1
112,1,22,1,3,7,1,7,0.267,1
112,1,23,1,3,8,1,6,0.312,1
112,1,24,1,2,7,7,1,0.327,1
112,1,25,1,3,8,1,6,0.285,1
112,1,26,1,3,7,1,7,0.343,1
112,1,27,1,1,6,5,4,0.296,1
112,1,28,1,2,8,6,1,0.444,1
112,1,29,1,3,7,1,7,0.582,1
112,1,30,1,1,5,5,5,0.378,1
112,1,31,1,2,7,6,2,0.368,1
112,1,32,1,4,12,1,2,0.526,2
112,1,33,1,2,7,7,1,0.326,1
112,1,34,1,4,13,1,1,0.566,2
112,1,35,1,2,8,6,1,0.345,1
112,1,36,1,4,12,1,2,0.414,2
112,1,37,1,1,5,5,5,0.37,1
112,1,38,1,3,7,2,6,0.58,1
112,1,39,1,1,6,5,4,0.423,1
112,1,40,1,3,7,2,6,0.447,1
112,1,1,2,3,7,1,7,0.454,1
112,1,2,2,1,6,5,4,0.344,1
112,1,3,2,4,11,2,2,0.335,2
112,1,4,2,2,7,7,1,0.581,1
112,1,5,2,4,11,2,2,0.786,2
112,1,6,2,1,5,5,5,0.357,1
112,1,7,2,1,6,4,5,0.531,1
112,1,8,2,2,7,6,2,0.755,1
112,1,9,2,2,8,6,1,0.943,1
112,1,10,2,1,5,5,5,0.295,1
112,1,11,2,4,13,1,1,0.312,2
112,1,12,2,4,13,1,1,0.343,2
112,1,13,2,4,12,1,2,0.431,2
112,1,14,2,3,7,1,7,0.294,1
112,1,15,2,2,8,6,1,0.322,1
112,1,16,2,3,8,1,6,0.34,1
112,1,17,2,1,6,5,4,0.399,1
112,1,18,2,2,7,7,1,0.317,1
112,1,19,2,2,8,6,1,0.547,1
112,1,20,2,4,12,2,1,0.521,2
112,1,21,2,3,7,2,6,0.364,1
112,1,22,2,4,11,2,2,0.357,2
112,1,23,2,1,6,5,4,0.41,1
112,1,24,2,1,5,5,5,0.567,1
112,1,25,2,3,7,1,7,0.326,1
112,1,26,2,2,7,6,2,0.327,1
112,1,27,2,1,6,4,5,0.274,1
112,1,28,2,4,13,1,1,0.377,2
112,1,29,2,3,7,2,6,0.471,1
112,1,30,2,1,6,4,5,0.666,1
112,1,31,2,2,7,7,1,0.561,1
112,1,32,2,3,7,1,7,0.448,1
112,1,33,2,2,7,6,2,0.557,1
112,1,34,2,2,7,7,1,0.272,1
112,1,35,2,3,7,2,6,0.341,1
112,1,36,2,3,8,1,6,0.371,1
112,1,37,2,4,12,2,1,0.34,2
112,1,38,2,4,12,1,2,0.3,2
112,1,39,2,1,5,5,5,0.342,1
112,1,40,2,3,8,1,6,0.624,1
114,1,1,1,4,11,2,2,1.029,1
114,1,2,1,2,7,7,1,0.76,1
114,1,3,1,4,11,2,2,1.047,1
114,1,4,1,4,13,1,1,0.717,2
114,1,5,1,2,7,6,2,0.615,1
114,1,6,1,1,6,5,4,0.739,1
114,1,7,1,3,7,1,7,0.741,2
114,1,8,1,3,7,1,7,0.568,1
114,1,9,1,4,13,1,1,1.045,2
114,1,10,1,3,8,1,6,0.585,1
114,1,11,1,3,7,2,6,0.56,1
114,1,12,1,2,8,6,1,0.422,1
114,1,13,1,1,5,5,5,0.744,1
114,1,14,1,2,8,6,1,0.929,1
114,1,15,1,1,6,4,5,0.552,1
114,1,17,1,2,7,7,1,0.626,1
114,1,18,1,4,12,1,2,1.007,2
114,1,19,1,2,8,6,1,0.675,1
114,1,20,1,3,7,2,6,0.27,1
114,1,21,1,3,7,1,7,0.712,1
114,1,22,1,4,12,2,1,0.739,1
114,1,23,1,4,11,2,2,0.477,1
114,1,24,1,4,13,1,1,0.591,2
114,1,25,1,3,7,2,6,0.591,1
114,1,26,1,3,8,1,6,0.387,1
114,1,27,1,1,5,5,5,0.678,1
114,1,28,1,2,7,6,2,0.498,1
114,1,29,1,3,8,1,6,0.48,1
114,1,30,1,1,6,5,4,0.589,1
114,1,31,1,1,6,5,4,0.603,1
114,1,32,1,4,12,2,1,0.316,1
114,1,33,1,1,5,5,5,0.243,1
114,1,34,1,2,7,7,1,0.633,1
114,1,35,1,1,6,4,5,0.51,1
114,1,36,1,2,7,6,2,0.405,1
114,1,37,1,2,7,7,1,0.434,1
114,1,38,1,4,12,1,2,0.734,2
114,1,39,1,1,6,4,5,0.534,1
114,1,40,1,1,5,5,5,0.504,1
114,1,1,2,1,6,4,5,0.292,1
114,1,2,2,2,8,6,1,0.24,1
114,1,3,2,3,8,1,6,0.349,1
114,1,4,2,4,13,1,1,0.295,2
114,1,5,2,4,11,2,2,0.303,1
114,1,6,2,2,7,6,2,0.51,1
114,1,7,2,4,13,1,1,0.523,2
114,1,8,2,2,7,7,1,0.286,1
114,1,9,2,1,6,4,5,0.593,1
114,1,10,2,4,11,2,2,0.494,1
114,1,11,2,1,5,5,5,0.352,1
114,1,12,2,4,12,2,1,0.422,1
114,1,13,2,3,7,2,6,0.591,1
114,1,14,2,3,7,1,7,0.431,1
114,1,15,2,2,7,7,1,0.436,1
114,1,16,2,2,7,6,2,0.889,1
114,1,17,2,2,7,7,1,0.675,1
114,1,18,2,1,6,4,5,0.475,1
114,1,19,2,4,11,2,2,0.445,1
114,1,20,2,2,8,6,1,0.41,1
114,1,21,2,3,7,1,7,0.602,1
114,1,22,2,1,6,5,4,0.491,1
114,1,23,2,4,12,2,1,1.117,1
114,1,24,2,3,8,1,6,0.601,1
114,1,25,2,1,5,5,5,0.551,1
114,1,26,2,1,6,5,4,0.505,1
114,1,27,2,4,12,1,2,0.696,2
114,1,28,2,3,8,1,6,1.135,1
114,1,29,2,2,7,6,2,0.592,1
114,1,30,2,4,13,1,1,1.476,1
114,1,31,2,3,7,1,7,0.439,1
114,1,32,2,1,5,5,5,1.391,1
114,1,33,2,1,5,5,5,0.626,1
114,1,34,2,3,7,1,7,2.09,1
114,1,35,2,3,7,2,6,0.528,1
114,1,36,2,2,7,7,1,0.745,1
114,1,37,2,3,7,2,6,0.38,1
114,1,38,2,2,8,6,1,0.407,1
114,1,39,2,4,12,1,2,0.56,2
114,1,40,2,1,6,5,4,0.495,1
115,1,1,1,3,7,1,7,0.432,1
115,1,2,1,4,11,2,2,0.547,2
115,1,3,1,3,7,1,7,0.699,1
115,1,4,1,1,6,5,4,0.555,1
115,1,5,1,4,11,2,2,0.869,2
115,1,6,1,3,8,1,6,0.415,1
115,1,7,1,2,7,7,1,0.365,1
115,1,8,1,1,5,5,5,0.525,1
115,1,9,1,4,13,1,1,0.518,2
115,1,10,1,2,7,6,2,0.392,1
115,1,11,1,4,13,1,1,0.326,2
115,1,12,1,2,8,6,1,0.415,1
115,1,13,1,4,12,1,2,0.419,2
115,1,14,1,2,8,6,1,0.45,1
115,1,15,1,4,12,2,1,0.323,2
115,1,16,1,3,7,2,6,0.342,1
115,1,17,1,1,6,4,5,0.372,1
115,1,18,1,3,7,1,7,0.405,1
115,1,19,1,1,5,5,5,0.401,1
115,1,20,1,2,7,7,1,0.444,1
115,1,21,1,1,6,5,4,0.374,1
115,1,22,1,2,8,6,1,0.379,1
115,1,23,1,3,7,2,6,0.62,1
115,1,24,1,2,7,6,2,0.386,1
115,1,25,1,4,11,2,2,0.532,2
115,1,26,1,3,7,1,7,0.351,1
115,1,27,1,4,13,1,1,0.825,2
115,1,28,1,4,12,2,1,0.334,2
115,1,29,1,1,6,5,4,0.568,1
115,1,30,1,4,12,1,2,0.368,2
115,1,31,1,3,7,2,6,0.465,1
115,1,32,1,3,8,1,6,0.445,1
115,1,33,1,2,7,7,1,0.387,1
115,1,34,1,3,8,1,6,0.386,1
115,1,35,1,2,7,6,2,0.423,1
115,1,36,1,1,5,5,5,0.457,1
115,1,37,1,2,7,7,1,0.436,1
115,1,38,1,1,6,4,5,0.562,1
115,1,39,1,1,6,4,5,0.359,1
115,1,40,1,1,5,5,5,0.466,1
115,1,1,2,1,6,4,5,0.374,1
115,1,2,2,4,13,1,1,0.247,2
115,1,3,2,2,8,6,1,0.424,1
115,1,4,2,1,6,4,5,0.294,1
115,1,5,2,3,8,1,6,0.342,1
115,1,6,2,2,7,6,2,0.339,1
115,1,7,2,4,11,2,2,0.303,1
115,1,8,2,3,7,2,6,0.431,1
115,1,9,2,3,7,1,7,0.409,1
115,1,10,2,4,13,1,1,0.316,2
115,1,11,2,1,5,5,5,0.396,1
115,1,12,2,3,7,1,7,0.343,1
115,1,13,2,1,6,4,5,0.316,1
115,1,14,2,4,11,2,2,0.456,1
115,1,15,2,3,8,1,6,0.516,1
115,1,16,2,2,7,7,1,0.337,1
115,1,17,2,4,12,2,1,0.47,2
115,1,18,2,2,7,7,1,0.351,1
115,1,19,2,2,7,6,2,0.383,1
115,1,20,2,1,6,5,4,0.389,1
115,1,21,2,3,8,1,6,0.4,1
115,1,22,2,2,7,7,1,0.381,1
115,1,23,2,4,11,2,2,0.379,1
115,1,24,2,3,7,1,7,0.344,1
115,1,25,2,1,5,5,5,0.336,1
115,1,26,2,4,12,2,1,0.906,2
115,1,27,2,2,8,6,1,0.346,1
115,1,28,2,1,6,5,4,0.516,1
115,1,29,2,4,12,1,2,0.406,2
115,1,30,2,1,5,5,5,0.343,1
115,1,31,2,2,7,6,2,0.553,1
115,1,32,2,4,13,1,1,0.606,2
115,1,33,2,4,12,1,2,0.291,2
115,1,34,2,1,5,5,5,0.459,1
115,1,35,2,3,7,1,7,0.497,1
115,1,36,2,3,7,2,6,0.566,1
115,1,37,2,2,7,7,1,0.448,1
115,1,38,2,3,7,2,6,0.617,1
115,1,39,2,1,6,5,4,0.591,1
115,1,40,2,2,8,6,1,0.489,1
116,1,1,1,4,13,1,1,0.444,2
116,1,2,1,3,8,1,6,0.433,2
116,1,3,1,3,7,2,6,0.797,2
116,1,4,1,2,8,6,1,0.528,1
116,1,5,1,3,7,1,7,0.511,2
116,1,6,1,1,6,4,5,0.682,1
116,1,7,1,4,11,2,2,0.611,2
116,1,8,1,1,6,4,5,0.477,1
116,1,9,1,4,13,1,1,0.477,2
116,1,10,1,4,11,2,2,0.534,2
116,1,11,1,4,12,2,1,0.41,2
116,1,12,1,1,5,5,5,0.35,1
116,1,13,1,2,7,6,2,0.579,1
116,1,14,1,1,6,4,5,0.575,1
116,1,15,1,4,11,2,2,0.391,2
116,1,16,1,1,6,5,4,1.087,1
116,1,17,1,4,12,2,1,0.502,2
116,1,18,1,2,7,7,1,0.668,1
116,1,19,1,2,7,7,1,0.617,1
116,1,20,1,1,5,5,5,0.479,1
116,1,21,1,2,7,6,2,0.598,1
116,1,22,1,3,7,1,7,1.977,2
116,1,23,1,3,8,1,6,0.741,2
116,1,24,1,2,7,7,1,0.668,1
116,1,25,1,3,8,1,6,0.482,2
116,1,26,1,3,7,1,7,1.011,2
116,1,27,1,1,6,5,4,2.285,1
116,1,28,1,2,8,6,1,0.745,1
116,1,29,1,3,7,1,7,0.675,2
116,1,30,1,1,5,5,5,1.095,1
116,1,31,1,2,7,6,2,0.845,1
116,1,32,1,4,12,1,2,1.098,2
116,1,33,1,2,7,7,1,1.883,1
116,1,34,1,4,13,1,1,0.883,2
116,1,35,1,2,8,6,1,1.166,1
116,1,36,1,4,12,1,2,1.291,2
116,1,37,1,1,5,5,5,0.791,1
116,1,38,1,3,7,2,6,1.242,2
116,1,39,1,1,6,5,4,0.748,1
116,1,40,1,3,7,2,6,0.756,2
116,1,1,2,3,7,1,7,0.659,2
116,1,2,2,1,6,5,4,1.443,1
116,1,3,2,4,11,2,2,1.195,2
116,1,4,2,2,7,7,1,1.17,1
116,1,5,2,4,11,2,2,1.535,2
116,1,6,2,1,5,5,5,1.777,1
116,1,7,2,1,6,4,5,0.887,1
116,1,8,2,2,7,6,2,0.807,1
116,1,9,2,2,8,6,1,2.306,1
116,1,10,2,1,5,5,5,1.459,1
116,1,11,2,4,13,1,1,1.596,2
116,1,12,2,4,13,1,1,0.882,2
116,1,14,2,3,7,1,7,1.201,2
116,1,15,2,2,8,6,1,2.086,1
116,1,16,2,3,8,1,6,0.88,2
116,1,17,2,1,6,5,4,0.94,1
116,1,18,2,2,7,7,1,0.89,1
116,1,19,2,2,8,6,1,0.968,1
116,1,20,2,4,12,2,1,1.532,2
116,1,21,2,3,7,2,6,2.528,2
116,1,22,2,4,11,2,2,1.265,2
116,1,23,2,1,6,5,4,0.974,1
116,1,24,2,1,5,5,5,1.01,1
116,1,26,2,2,7,6,2,0.788,1
116,1,27,2,1,6,4,5,2.038,1
116,1,28,2,4,13,1,1,0.444,2
116,1,29,2,3,7,2,6,1.077,2
116,1,30,2,1,6,4,5,0.414,1
116,1,31,2,2,7,7,1,0.508,1
116,1,32,2,3,7,1,7,1.428,2
116,1,33,2,2,7,6,2,0.762,1
116,1,34,2,2,7,7,1,0.763,1
116,1,35,2,3,7,2,6,0.81,2
116,1,36,2,3,8,1,6,0.271,2
116,1,37,2,4,12,2,1,0.96,2
116,1,38,2,4,12,1,2,0.646,2
116,1,39,2,1,5,5,5,0.69,1
116,1,40,2,3,8,1,6,0.748,2
201,2,1,1,2,8,6,1,0.756,1
201,2,2,1,2,7,6,2,0.793,1
201,2,3,1,4,13,1,1,0.618,2
201,2,4,1,3,8,1,6,0.964,2
201,2,5,1,4,11,2,2,0.697,2
201,2,6,1,1,6,4,5,0.998,1
201,2,7,1,4,13,1,1,0.808,2
201,2,8,1,1,6,4,5,1.134,1
201,2,9,1,3,7,2,6,0.599,2
201,2,10,1,1,5,5,5,0.558,1
201,2,11,1,1,6,4,5,0.86,1
201,2,12,1,4,11,2,2,1.592,2
201,2,13,1,3,7,1,7,0.527,2
201,2,14,1,3,7,1,7,0.605,2
201,2,15,1,2,7,7,1,1.1,1
201,2,16,1,2,7,7,1,0.833,1
201,2,17,1,4,12,2,1,0.604,2
201,2,18,1,3,8,1,6,0.545,2
201,2,19,1,1,6,5,4,0.85,1
201,2,20,1,4,11,2,2,0.504,2
201,2,21,1,4,12,2,1,0.603,2
201,2,22,1,1,5,5,5,0.714,1
201,2,23,1,1,6,5,4,0.754,1
201,2,24,1,2,7,6,2,0.735,1
201,2,25,1,3,8,1,6,0.608,2
201,2,26,1,2,7,7,1,0.704,1
201,2,27,1,2,8,6,1,0.661,1
201,2,28,1,4,12,1,2,0.501,2
201,2,29,1,1,5,5,5,0.757,1
201,2,30,1,3,7,1,7,1.133,2
201,2,31,1,3,7,1,7,0.679,2
201,2,32,1,2,7,6,2,0.553,1
201,2,33,1,1,5,5,5,1.174,1
201,2,34,1,1,6,5,4,0.703,1
201,2,35,1,4,13,1,1,0.739,2
201,2,36,1,2,7,7,1,0.603,1
201,2,37,1,3,7,2,6,0.901,2
201,2,38,1,4,12,1,2,0.424,2
201,2,39,1,3,7,2,6,0.501,2
201,2,40,1,2,8,6,1,1.242,1
201,2,1,2,1,6,5,4,0.817,1
201,2,2,2,3,7,1,7,0.734,2
201,2,3,2,1,5,5,5,0.72,1
201,2,4,2,3,7,1,7,1.416,2
201,2,5,2,4,11,2,2,0.654,2
201,2,6,2,2,7,7,1,1.336,1
201,2,7,2,2,7,6,2,1.069,1
201,2,8,2,3,8,1,6,0.723,2
201,2,10,2,4,11,2,2,0.651,2
201,2,11,2,4,13,1,1,0.514,2
201,2,12,2,2,8,6,1,2.632,1
201,2,13,2,2,8,6,1,0.577,1
201,2,14,2,4,13,1,1,1.196,2
201,2,15,2,2,7,7,1,1.35,1
201,2,16,2,2,8,6,1,0.561,1
201,2,17,2,4,12,1,2,0.683,2
201,2,18,2,3,7,2,6,0.552,2
201,2,19,2,3,7,1,7,1.039,2
201,2,20,2,4,12,2,1,0.676,2
201,2,21,2,2,7,6,2,2.261,1
201,2,22,2,3,7,2,6,0.826,2
201,2,23,2,3,7,1,7,0.893,2
201,2,24,2,2,7,7,1,0.581,1
201,2,25,2,3,7,2,6,1.08,2
201,2,26,2,4,11,2,2,0.774,2
201,2,27,2,1,5,5,5,0.44,1
201,2,28,2,4,13,1,1,0.421,2
201,2,29,2,1,6,5,4,2.681,1
201,2,30,2,4,12,2,1,0.547,2
201,2,32,2,3,8,1,6,0.571,2
201,2,33,2,1,5,5,5,0.596,1
201,2,34,2,2,7,6,2,0.451,1
201,2,35,2,2,7,7,1,0.603,1
201,2,36,2,4,12,1,2,0.633,2
201,2,37,2,3,8,1,6,1.58,2
201,2,38,2,1,6,4,5,1.243,1
201,2,39,2,1,6,4,5,0.479,1
202,2,1,1,4,11,2,2,1.33,1
202,2,2,1,2,7,7,1,0.925,1
202,2,3,1,4,11,2,2,1.108,1
202,2,4,1,4,13,1,1,0.955,2
202,2,5,1,2,7,6,2,0.829,1
202,2,6,1,1,6,5,4,0.705,1
202,2,7,1,3,7,1,7,0.93,1
202,2,8,1,3,7,1,7,0.701,1
202,2,9,1,4,13,1,1,0.858,1
202,2,10,1,3,8,1,6,0.991,1
202,2,11,1,3,7,2,6,2.75,1
202,2,12,1,2,8,6,1,0.883,1
202,2,13,1,1,5,5,5,0.67,1
202,2,14,1,2,8,6,1,0.655,1
202,2,15,1,1,6,4,5,0.702,1
202,2,16,1,3,7,1,7,0.868,1
202,2,17,1,2,7,7,1,0.736,1
202,2,18,1,4,12,1,2,0.765,1
202,2,19,1,2,8,6,1,1.161,1
202,2,20,1,3,7,2,6,0.78,1
202,2,21,1,3,7,1,7,0.686,1
202,2,22,1,4,12,2,1,0.856,1
202,2,23,1,4,11,2,2,0.763,1
202,2,24,1,4,13,1,1,0.716,2
202,2,25,1,3,7,2,6,0.653,1
202,2,26,1,3,8,1,6,1.008,1
202,2,27,1,1,5,5,5,1.38,1
202,2,28,1,2,7,6,2,0.783,1
202,2,29,1,3,8,1,6,0.701,1
202,2,30,1,1,6,5,4,0.714,1
202,2,31,1,1,6,5,4,0.713,1
202,2,32,1,4,12,2,1,0.698,1
202,2,33,1,1,5,5,5,0.559,1
202,2,34,1,2,7,7,1,0.663,1
202,2,35,1,1,6,4,5,0.692,1
202,2,36,1,2,7,6,2,0.723,1
202,2,37,1,2,7,7,1,0.688,1
202,2,38,1,4,12,1,2,0.94,1
202,2,39,1,1,6,4,5,1.18,1
202,2,40,1,1,5,5,5,0.63,1
202,2,1,2,1,6,4,5,1.183,1
202,2,2,2,2,8,6,1,0.787,1
202,2,3,2,3,8,1,6,0.711,1
202,2,4,2,4,13,1,1,0.473,1
202,2,5,2,4,11,2,2,0.713,1
202,2,6,2,2,7,6,2,0.921,1
202,2,7,2,4,13,1,1,0.742,1
202,2,8,2,2,7,7,1,0.849,1
202,2,9,2,1,6,4,5,0.867,1
202,2,10,2,4,11,2,2,0.689,1
202,2,11,2,1,5,5,5,0.691,1
202,2,12,2,4,12,2,1,0.697,1
202,2,13,2,3,7,2,6,0.866,1
202,2,14,2,3,7,1,7,0.617,1
202,2,15,2,2,7,7,1,0.615,1
202,2,16,2,2,7,6,2,0.579,1
202,2,17,2,2,7,7,1,0.542,1
202,2,18,2,1,6,4,5,0.661,1
202,2,19,2,4,11,2,2,0.672,1
202,2,20,2,2,8,6,1,0.58,1
202,2,21,2,3,7,1,7,0.669,1
202,2,22,2,1,6,5,4,0.806,1
202,2,23,2,4,12,2,1,0.648,1
202,2,24,2,3,8,1,6,0.675,1
202,2,25,2,1,5,5,5,0.81,1
202,2,26,2,1,6,5,4,0.667,1
202,2,27,2,4,12,1,2,0.658,1
202,2,28,2,3,8,1,6,0.689,1
202,2,29,2,2,7,6,2,0.73,1
202,2,30,2,4,13,1,1,0.735,1
202,2,31,2,3,7,1,7,0.658,1
202,2,32,2,1,5,5,5,0.849,1
202,2,33,2,1,5,5,5,0.676,1
202,2,34,2,3,7,1,7,0.477,1
202,2,35,2,3,7,2,6,0.691,1
202,2,36,2,2,7,7,1,0.563,1
202,2,37,2,3,7,2,6,0.686,1
202,2,38,2,2,8,6,1,1.33,1
202,2,39,2,4,12,1,2,0.619,1
202,2,40,2,1,6,5,4,0.467,1
203,2,1,1,3,7,1,7,0.724,2
203,2,2,1,4,11,2,2,1.863,1
203,2,3,1,3,7,1,7,0.694,2
203,2,4,1,1,6,5,4,0.606,1
203,2,5,1,4,11,2,2,1.025,2
203,2,6,1,3,8,1,6,1.442,2
203,2,7,1,2,7,7,1,1.696,1
203,2,8,1,1,5,5,5,1.233,1
203,2,9,1,4,13,1,1,1.178,2
203,2,10,1,2,7,6,2,1.923,1
203,2,11,1,4,13,1,1,0.954,2
203,2,12,1,2,8,6,1,0.779,1
203,2,13,1,4,12,1,2,1.374,2
203,2,14,1,2,8,6,1,1.981,1
203,2,15,1,4,12,2,1,1.262,2
203,2,16,1,3,7,2,6,0.873,2
203,2,17,1,1,6,4,5,1.167,1
203,2,18,1,3,7,1,7,1.073,2
203,2,19,1,1,5,5,5,1.205,1
203,2,20,1,2,7,7,1,2.464,1
203,2,21,1,1,6,5,4,0.754,1
203,2,22,1,2,8,6,1,1.614,1
203,2,23,1,3,7,2,6,0.856,2
203,2,24,1,2,7,6,2,1.789,1
203,2,25,1,4,11,2,2,1.608,2
203,2,26,1,3,7,1,7,1.675,2
203,2,27,1,4,13,1,1,0.549,2
203,2,28,1,4,12,2,1,1.874,2
203,2,29,1,1,6,5,4,1.291,1
203,2,30,1,4,12,1,2,1.22,2
203,2,31,1,3,7,2,6,1.261,2
203,2,32,1,3,8,1,6,0.64,2
203,2,34,1,3,8,1,6,0.757,2
203,2,35,1,2,7,6,2,0.843,1
203,2,36,1,1,5,5,5,0.964,1
203,2,37,1,2,7,7,1,1.968,1
203,2,38,1,1,6,4,5,1.71,1
203,2,39,1,1,6,4,5,0.802,1
203,2,40,1,1,5,5,5,0.702,1
203,2,1,2,1,6,4,5,0.732,1
203,2,2,2,4,13,1,1,0.614,2
203,2,3,2,2,8,6,1,0.887,1
203,2,4,2,1,6,4,5,1.197,1
203,2,5,2,3,8,1,6,1.085,2
203,2,6,2,2,7,6,2,0.937,1
203,2,7,2,4,11,2,2,1.189,2
203,2,8,2,3,7,2,6,1.542,2
203,2,9,2,3,7,1,7,0.936,2
203,2,10,2,4,13,1,1,0.875,2
203,2,11,2,1,5,5,5,1.611,1
203,2,12,2,3,7,1,7,1.27,2
203,2,13,2,1,6,4,5,1.291,1
203,2,14,2,4,11,2,2,0.99,2
203,2,15,2,3,8,1,6,0.666,2
203,2,16,2,2,7,7,1,1.183,1
203,2,17,2,4,12,2,1,0.621,2
203,2,18,2,2,7,7,1,0.894,1
203,2,19,2,2,7,6,2,0.629,1
203,2,20,2,1,6,5,4,0.596,1
203,2,21,2,3,8,1,6,0.967,2
203,2,22,2,2,7,7,1,1.603,1
203,2,23,2,4,11,2,2,1.722,2
203,2,24,2,3,7,1,7,1.471,2
203,2,25,2,1,5,5,5,0.534,1
203,2,26,2,4,12,2,1,1.768,2
203,2,27,2,2,8,6,1,1.273,1
203,2,28,2,1,6,5,4,1.346,1
203,2,29,2,4,12,1,2,1.541,2
203,2,30,2,1,5,5,5,0.87,1
203,2,31,2,2,7,6,2,0.999,1
203,2,32,2,4,13,1,1,1.052,2
203,2,33,2,4,12,1,2,0.673,2
203,2,34,2,1,5,5,5,0.657,1
203,2,35,2,3,7,1,7,0.88,2
203,2,36,2,3,7,2,6,0.829,2
203,2,37,2,2,7,7,1,1.214,1
203,2,38,2,3,7,2,6,0.791,2
203,2,39,2,1,6,5,4,0.862,1
203,2,40,2,2,8,6,1,2.192,1
204,2,1,1,4,13,1,1,0.333,1
204,2,2,1,3,8,1,6,0.588,1
204,2,3,1,3,7,2,6,1,1
204,2,4,1,2,8,6,1,0.587,1
204,2,5,1,3,7,1,7,0.537,1
204,2,6,1,1,6,4,5,0.446,1
204,2,7,1,4,11,2,2,0.95,1
204,2,8,1,1,6,4,5,1.03,1
204,2,9,1,4,13,1,1,0.815,1
204,2,10,1,4,11,2,2,0.762,1
204,2,11,1,4,12,2,1,0.585,1
204,2,12,1,1,5,5,5,0.694,1
204,2,13,1,2,7,6,2,0.598,1
204,2,14,1,1,6,4,5,0.778,1
204,2,15,1,4,11,2,2,1.043,1
204,2,16,1,1,6,5,4,0.666,1
204,2,17,1,4,12,2,1,1.065,1
204,2,18,1,2,7,7,1,0.711,1
204,2,19,1,2,7,7,1,0.845,1
204,2,20,1,1,5,5,5,0.736,1
204,2,21,1,2,7,6,2,1.479,1
204,2,22,1,3,7,1,7,0.625,1
204,2,23,1,3,8,1,6,0.799,1
204,2,24,1,2,7,7,1,1.636,1
204,2,25,1,3,8,1,6,1.183,1
204,2,26,1,3,7,1,7,1.018,1
204,2,27,1,1,6,5,4,0.422,1
204,2,28,1,2,8,6,1,0.726,1
204,2,29,1,3,7,1,7,0.63,1
204,2,30,1,1,5,5,5,0.634,1
204,2,31,1,2,7,6,2,0.76,1
204,2,32,1,4,12,1,2,1.076,1
204,2,33,1,2,7,7,1,1.439,1
204,2,35,1,2,8,6,1,0.512,1
204,2,36,1,4,12,1,2,0.589,1
204,2,37,1,1,5,5,5,0.765,1
204,2,38,1,3,7,2,6,0.928,1
204,2,39,1,1,6,5,4,0.331,1
204,2,40,1,3,7,2,6,0.457,1
204,2,1,2,3,7,1,7,1.849,1
204,2,2,2,1,6,5,4,0.654,1
204,2,3,2,4,11,2,2,1.74,1
204,2,4,2,2,7,7,1,0.705,1
204,2,5,2,4,11,2,2,1.423,1
204,2,6,2,1,5,5,5,1.101,1
204,2,7,2,1,6,4,5,0.737,1
204,2,8,2,2,7,6,2,0.47,1
204,2,9,2,2,8,6,1,0.965,1
204,2,10,2,1,5,5,5,0.819,1
204,2,11,2,4,13,1,1,1.211,1
204,2,12,2,4,13,1,1,2.766,1
204,2,13,2,4,12,1,2,0.929,1
204,2,14,2,3,7,1,7,1.409,1
204,2,15,2,2,8,6,1,1.68,1
204,2,16,2,3,8,1,6,0.986,1
204,2,17,2,1,6,5,4,0.654,1
204,2,18,2,2,7,7,1,0.948,1
204,2,19,2,2,8,6,1,0.552,1
204,2,20,2,4,12,2,1,0.68,1
204,2,21,2,3,7,2,6,0.545,1
204,2,22,2,4,11,2,2,0.592,1
204,2,23,2,1,6,5,4,1.11,1
204,2,24,2,1,5,5,5,0.44,1
204,2,25,2,3,7,1,7,0.781,1
204,2,26,2,2,7,6,2,0.575,1
204,2,27,2,1,6,4,5,0.953,1
204,2,28,2,4,13,1,1,1.044,1
204,2,29,2,3,7,2,6,0.967,1
204,2,30,2,1,6,4,5,0.767,1
204,2,31,2,2,7,7,1,0.368,1
204,2,32,2,3,7,1,7,0.923,1
204,2,33,2,2,7,6,2,0.714,1
204,2,34,2,2,7,7,1,0.679,1
204,2,35,2,3,7,2,6,0.486,1
204,2,36,2,3,8,1,6,1.992,1
204,2,37,2,4,12,2,1,1.151,1
204,2,38,2,4,12,1,2,0.762,1
204,2,39,2,1,5,5,5,1.305,1
204,2,40,2,3,8,1,6,0.373,1
205,2,1,1,2,8,6,1,0.726,1
205,2,2,1,2,7,6,2,0.674,1
205,2,3,1,4,13,1,1,0.803,2
205,2,4,1,3,8,1,6,0.941,1
205,2,5,1,4,11,2,2,0.699,2
205,2,6,1,1,6,4,5,0.975,1
205,2,7,1,4,13,1,1,0.489,2
205,2,8,1,1,6,4,5,0.743,1
205,2,9,1,3,7,2,6,0.84,2
205,2,10,1,1,5,5,5,0.671,1
205,2,11,1,1,6,4,5,0.669,1
205,2,12,1,4,11,2,2,0.577,2
205,2,13,1,3,7,1,7,0.615,2
205,2,14,1,3,7,1,7,0.839,2
205,2,15,1,2,7,7,1,0.398,2
205,2,16,1,2,7,7,1,0.451,2
205,2,17,1,4,12,2,1,0.509,2
205,2,18,1,3,8,1,6,0.65,2
205,2,19,1,1,6,5,4,0.556,1
205,2,20,1,4,11,2,2,0.369,2
205,2,21,1,4,12,2,1,0.9,2
205,2,22,1,1,5,5,5,0.651,1
205,2,23,1,1,6,5,4,0.7,1
205,2,24,1,2,7,6,2,0.784,1
205,2,25,1,3,8,1,6,0.658,2
205,2,26,1,2,7,7,1,0.586,1
205,2,27,1,2,8,6,1,0.47,2
205,2,28,1,4,12,1,2,0.703,2
205,2,29,1,1,5,5,5,0.542,1
205,2,30,1,3,7,1,7,0.566,2
205,2,31,1,3,7,1,7,0.832,2
205,2,32,1,2,7,6,2,0.53,1
205,2,33,1,1,5,5,5,0.687,1
205,2,34,1,1,6,5,4,0.896,1
205,2,35,1,4,13,1,1,0.845,2
205,2,36,1,2,7,7,1,0.765,1
205,2,37,1,3,7,2,6,0.567,1
205,2,38,1,4,12,1,2,0.769,2
205,2,39,1,3,7,2,6,0.567,2
205,2,40,1,2,8,6,1,0.867,2
205,2,1,2,1,6,5,4,0.583,1
205,2,2,2,3,7,1,7,0.459,2
205,2,3,2,1,5,5,5,0.678,1
205,2,4,2,3,7,1,7,0.598,2
205,2,5,2,4,11,2,2,0.499,2
205,2,6,2,2,7,7,1,0.629,1
205,2,7,2,2,7,6,2,0.69,1
205,2,8,2,3,8,1,6,0.736,2
205,2,9,2,1,6,4,5,0.791,1
205,2,10,2,4,11,2,2,0.664,2
205,2,11,2,4,13,1,1,0.584,2
205,2,12,2,2,8,6,1,0.837,2
205,2,13,2,2,8,6,1,0.759,2
205,2,14,2,4,13,1,1,0.658,2
205,2,15,2,2,7,7,1,0.612,1
205,2,16,2,2,8,6,1,0.575,2
205,2,17,2,4,12,1,2,0.545,2
205,2,18,2,3,7,2,6,1.022,2
205,2,19,2,3,7,1,7,0.637,2
205,2,20,2,4,12,2,1,0.729,2
205,2,21,2,2,7,6,2,0.554,1
205,2,22,2,3,7,2,6,0.864,1
205,2,23,2,3,7,1,7,0.667,2
205,2,24,2,2,7,7,1,0.634,2
205,2,25,2,3,7,2,6,0.83,2
205,2,27,2,1,5,5,5,0.39,1
205,2,28,2,4,13,1,1,0.467,2
205,2,29,2,1,6,5,4,0.59,1
205,2,30,2,4,12,2,1,0.528,2
205,2,31,2,1,6,5,4,0.746,1
205,2,32,2,3,8,1,6,0.385,2
205,2,33,2,1,5,5,5,0.729,1
205,2,34,2,2,7,6,2,0.617,1
205,2,35,2,2,7,7,1,0.601,1
205,2,36,2,4,12,1,2,0.863,2
205,2,37,2,3,8,1,6,0.818,1
205,2,38,2,1,6,4,5,2.897,1
205,2,39,2,1,6,4,5,0.597,1
205,2,40,2,1,5,5,5,0.486,1
206,2,1,1,4,11,2,2,0.762,1
206,2,2,1,2,7,7,1,0.491,1
206,2,3,1,4,11,2,2,0.666,1
206,2,4,1,4,13,1,1,0.902,2
206,2,5,1,2,7,6,2,0.668,1
206,2,6,1,1,6,5,4,0.737,1
206,2,7,1,3,7,1,7,0.599,1
206,2,8,1,3,7,1,7,1.122,1
206,2,9,1,4,13,1,1,0.587,2
206,2,10,1,3,8,1,6,0.654,1
206,2,11,1,3,7,2,6,0.431,1
206,2,12,1,2,8,6,1,0.399,1
206,2,13,1,1,5,5,5,0.529,1
206,2,14,1,2,8,6,1,0.596,1
206,2,15,1,1,6,4,5,0.663,1
206,2,16,1,3,7,1,7,0.602,1
206,2,17,1,2,7,7,1,0.545,1
206,2,18,1,4,12,1,2,0.79,1
206,2,19,1,2,8,6,1,0.467,1
206,2,20,1,3,7,2,6,0.717,1
206,2,21,1,3,7,1,7,0.479,1
206,2,22,1,4,12,2,1,0.571,1
206,2,23,1,4,11,2,2,0.64,1
206,2,24,1,4,13,1,1,0.597,2
206,2,25,1,3,7,2,6,0.598,1
206,2,26,1,3,8,1,6,0.376,1
206,2,27,1,1,5,5,5,0.614,1
206,2,28,1,2,7,6,2,0.617,1
206,2,29,1,3,8,1,6,1.246,1
206,2,30,1,1,6,5,4,0.968,1
206,2,31,1,1,6,5,4,0.971,1
206,2,32,1,4,12,2,1,0.63,1
206,2,33,1,1,5,5,5,0.721,1
206,2,34,1,2,7,7,1,0.513,1
206,2,35,1,1,6,4,5,0.599,1
206,2,36,1,2,7,6,2,0.522,1
206,2,37,1,2,7,7,1,0.589,1
206,2,38,1,4,12,1,2,0.675,1
206,2,39,1,1,6,4,5,0.563,1
206,2,40,1,1,5,5,5,0.444,1
206,2,1,2,1,6,4,5,0.568,1
206,2,2,2,2,8,6,1,0.467,1
206,2,3,2,3,8,1,6,0.311,1
206,2,4,2,4,13,1,1,0.512,1
206,2,5,2,4,11,2,2,0.367,1
206,2,6,2,2,7,6,2,0.885,1
206,2,7,2,4,13,1,1,0.476,1
206,2,8,2,2,7,7,1,0.602,1
206,2,9,2,1,6,4,5,0.562,1
206,2,10,2,4,11,2,2,0.439,1
206,2,11,2,1,5,5,5,0.403,1
206,2,12,2,4,12,2,1,0.344,1
206,2,13,2,3,7,2,6,0.399,1
206,2,14,2,3,7,1,7,0.498,1
206,2,15,2,2,7,7,1,0.407,1
206,2,16,2,2,7,6,2,0.888,1
206,2,17,2,2,7,7,1,0.422,1
206,2,18,2,1,6,4,5,0.31,1
206,2,19,2,4,11,2,2,0.3,1
206,2,20,2,2,8,6,1,0.474,1
206,2,21,2,3,7,1,7,0.462,1
206,2,22,2,1,6,5,4,0.397,1
206,2,23,2,4,12,2,1,0.393,1
206,2,24,2,3,8,1,6,0.488,1
206,2,25,2,1,5,5,5,0.384,1
206,2,26,2,1,6,5,4,0.462,1
206,2,27,2,4,12,1,2,0.574,1
206,2,28,2,3,8,1,6,0.587,1
206,2,29,2,2,7,6,2,0.579,1
206,2,30,2,4,13,1,1,0.398,1
206,2,31,2,3,7,1,7,0.516,1
206,2,32,2,1,5,5,5,0.291,1
206,2,33,2,1,5,5,5,0.413,1
206,2,34,2,3,7,1,7,0.612,1
206,2,35,2,3,7,2,6,0.521,1
206,2,36,2,2,7,7,1,0.585,1
206,2,37,2,3,7,2,6,0.542,1
206,2,38,2,2,8,6,1,0.352,1
206,2,39,2,4,12,1,2,0.648,1
206,2,40,2,1,6,5,4,0.436,1
207,2,1,1,3,7,1,7,0.704,2
207,2,2,1,4,11,2,2,0.939,1
207,2,3,1,3,7,1,7,1.098,2
207,2,4,1,1,6,5,4,0.619,1
207,2,5,1,4,11,2,2,0.773,1
207,2,6,1,3,8,1,6,1.959,1
207,2,7,1,2,7,7,1,0.684,1
207,2,8,1,1,5,5,5,0.693,1
207,2,9,1,4,13,1,1,1.655,2
207,2,10,1,2,7,6,2,0.728,1
207,2,11,1,4,13,1,1,0.774,2
207,2,12,1,2,8,6,1,0.687,1
207,2,13,1,4,12,1,2,0.706,2
207,2,14,1,2,8,6,1,1.017,1
207,2,15,1,4,12,2,1,1.571,1
207,2,16,1,3,7,2,6,0.757,1
207,2,17,1,1,6,4,5,0.659,1
207,2,18,1,3,7,1,7,0.677,1
207,2,19,1,1,5,5,5,0.721,1
207,2,20,1,2,7,7,1,0.653,1
207,2,21,1,1,6,5,4,0.894,1
207,2,22,1,2,8,6,1,0.739,1
207,2,23,1,3,7,2,6,1.428,1
207,2,24,1,2,7,6,2,1.346,1
207,2,25,1,4,11,2,2,0.828,1
207,2,26,1,3,7,1,7,0.895,1
207,2,27,1,4,13,1,1,0.753,1
207,2,28,1,4,12,2,1,0.599,1
207,2,29,1,1,6,5,4,0.727,1
207,2,30,1,4,12,1,2,2.496,1
207,2,31,1,3,7,2,6,0.881,1
207,2,32,1,3,8,1,6,1.109,1
207,2,33,1,2,7,7,1,0.796,1
207,2,34,1,3,8,1,6,2.098,1
207,2,35,1,2,7,6,2,0.623,1
207,2,36,1,1,5,5,5,0.769,1
207,2,37,1,2,7,7,1,0.757,1
207,2,38,1,1,6,4,5,0.842,1
207,2,39,1,1,6,4,5,0.406,1
207,2,40,1,1,5,5,5,0.539,1
207,2,1,2,1,6,4,5,0.647,1
207,2,2,2,4,13,1,1,0.88,2
207,2,3,2,2,8,6,1,0.673,1
207,2,4,2,1,6,4,5,0.719,1
207,2,5,2,3,8,1,6,0.615,1
207,2,6,2,2,7,6,2,0.724,1
207,2,7,2,4,11,2,2,0.992,1
207,2,8,2,3,7,2,6,1.568,1
207,2,9,2,3,7,1,7,2.09,1
207,2,10,2,4,13,1,1,1.358,1
207,2,11,2,1,5,5,5,0.541,1
207,2,12,2,3,7,1,7,2.248,1
207,2,13,2,1,6,4,5,0.822,1
207,2,14,2,4,11,2,2,0.777,1
207,2,15,2,3,8,1,6,1.525,1
207,2,16,2,2,7,7,1,0.81,1
207,2,17,2,4,12,2,1,1.583,1
207,2,18,2,2,7,7,1,1.04,1
207,2,19,2,2,7,6,2,1.016,1
207,2,20,2,1,6,5,4,0.775,1
207,2,21,2,3,8,1,6,1.466,1
207,2,22,2,2,7,7,1,0.654,1
207,2,23,2,4,11,2,2,1.284,1
207,2,25,2,1,5,5,5,0.601,1
207,2,26,2,4,12,2,1,0.659,1
207,2,27,2,2,8,6,1,0.94,1
207,2,28,2,1,6,5,4,0.892,1
207,2,29,2,4,12,1,2,1.456,1
207,2,30,2,1,5,5,5,0.641,1
207,2,31,2,2,7,6,2,0.57,1
207,2,32,2,4,13,1,1,2.062,2
207,2,33,2,4,12,1,2,0.852,1
207,2,34,2,1,5,5,5,0.82,1
207,2,35,2,3,7,1,7,1.146,1
207,2,36,2,3,7,2,6,1.495,1
207,2,37,2,2,7,7,1,0.657,1
207,2,38,2,3,7,2,6,0.618,1
207,2,39,2,1,6,5,4,1.176,1
207,2,40,2,2,8,6,1,0.426,1
208,2,1,1,4,13,1,1,0.861,2
208,2,2,1,3,8,1,6,0.755,1
208,2,3,1,3,7,2,6,0.744,1
208,2,4,1,2,8,6,1,0.665,1
208,2,5,1,3,7,1,7,0.664,1
208,2,6,1,1,6,4,5,0.676,1
208,2,7,1,4,11,2,2,0.901,1
208,2,8,1,1,6,4,5,0.566,1
208,2,9,1,4,13,1,1,0.767,1
208,2,10,1,4,11,2,2,0.592,1
208,2,11,1,4,12,2,1,0.868,1
208,2,12,1,1,5,5,5,0.608,1
208,2,13,1,2,7,6,2,0.692,1
208,2,14,1,1,6,4,5,0.832,1
208,2,15,1,4,11,2,2,0.6,1
208,2,16,1,1,6,5,4,0.752,1
208,2,17,1,4,12,2,1,0.744,1
208,2,18,1,2,7,7,1,0.678,1
208,2,19,1,2,7,7,1,0.683,1
208,2,20,1,1,5,5,5,0.608,1
208,2,21,1,2,7,6,2,0.624,1
208,2,22,1,3,7,1,7,0.722,1
208,2,23,1,3,8,1,6,0.822,2
208,2,24,1,2,7,7,1,0.621,1
208,2,25,1,3,8,1,6,0.683,2
208,2,26,1,3,7,1,7,0.621,1
208,2,27,1,1,6,5,4,0.735,1
208,2,28,1,2,8,6,1,0.586,1
208,2,29,1,3,7,1,7,0.692,1
208,2,30,1,1,5,5,5,0.913,1
208,2,31,1,2,7,6,2,0.614,1
208,2,32,1,4,12,1,2,0.684,2
208,2,33,1,2,7,7,1,0.741,1
208,2,34,1,4,13,1,1,0.796,2
208,2,35,1,2,8,6,1,0.727,1
208,2,36,1,4,12,1,2,0.901,2
208,2,37,1,1,5,5,5,0.713,1
208,2,38,1,3,7,2,6,1.251,1
208,2,39,1,1,6,5,4,0.782,1
208,2,40,1,3,7,2,6,1.053,1
208,2,1,2,3,7,1,7,0.612,1
208,2,2,2,1,6,5,4,0.709,1
208,2,3,2,4,11,2,2,0.628,1
208,2,4,2,2,7,7,1,0.619,1
208,2,5,2,4,11,2,2,0.727,1
208,2,6,2,1,5,5,5,0.57,1
208,2,7,2,1,6,4,5,0.616,1
208,2,8,2,2,7,6,2,0.785,1
208,2,9,2,2,8,6,1,0.86,1
208,2,10,2,1,5,5,5,0.556,1
208,2,11,2,4,13,1,1,0.845,2
208,2,12,2,4,13,1,1,0.683,2
208,2,13,2,4,12,1,2,0.676,1
208,2,14,2,3,7,1,7,0.899,1
208,2,15,2,2,8,6,1,0.887,1
208,2,16,2,3,8,1,6,0.913,1
208,2,17,2,1,6,5,4,0.748,1
208,2,18,2,2,7,7,1,0.756,1
208,2,19,2,2,8,6,1,0.769,1
208,2,20,2,4,12,2,1,0.99,1
208,2,21,2,3,7,2,6,1.553,1
208,2,22,2,4,11,2,2,1.114,1
208,2,23,2,1,6,5,4,0.952,1
208,2,24,2,1,5,5,5,0.772,1
208,2,25,2,3,7,1,7,1.219,1
208,2,26,2,2,7,6,2,0.877,1
208,2,27,2,1,6,4,5,0.895,1
208,2,28,2,4,13,1,1,1.014,2
208,2,29,2,3,7,2,6,0.637,1
208,2,30,2,1,6,4,5,1.207,1
208,2,31,2,2,7,7,1,0.742,1
208,2,32,2,3,7,1,7,0.861,1
208,2,33,2,2,7,6,2,0.955,1
208,2,34,2,2,7,7,1,0.669,1
208,2,35,2,3,7,2,6,0.779,1
208,2,36,2,3,8,1,6,0.992,1
208,2,37,2,4,12,2,1,0.802,1
208,2,38,2,4,12,1,2,0.735,2
208,2,39,2,1,5,5,5,0.692,1
208,2,40,2,3,8,1,6,0.989,1
209,2,1,1,2,8,6,1,0.394,1
209,2,2,1,2,7,6,2,0.334,1
209,2,3,1,4,13,1,1,0.336,2
209,2,4,1,3,8,1,6,0.321,2
209,2,5,1,4,11,2,2,0.647,2
209,2,6,1,1,6,4,5,0.595,1
209,2,7,1,4,13,1,1,0.493,2
209,2,8,1,1,6,4,5,0.307,1
209,2,9,1,3,7,2,6,0.356,2
209,2,10,1,1,5,5,5,0.523,1
209,2,11,1,1,6,4,5,0.473,1
209,2,12,1,4,11,2,2,0.373,2
209,2,13,1,3,7,1,7,0.348,2
209,2,14,1,3,7,1,7,0.739,2
209,2,15,1,2,7,7,1,0.338,1
209,2,16,1,2,7,7,1,0.366,1
209,2,17,1,4,12,2,1,0.337,2
209,2,18,1,3,8,1,6,0.486,2
209,2,19,1,1,6,5,4,0.976,1
209,2,20,1,4,11,2,2,0.309,2
209,2,21,1,4,12,2,1,0.304,2
209,2,22,1,1,5,5,5,0.359,1
209,2,23,1,1,6,5,4,0.344,1
209,2,24,1,2,7,6,2,0.7,1
209,2,25,1,3,8,1,6,0.454,2
209,2,26,1,2,7,7,1,0.414,1
209,2,27,1,2,8,6,1,0.41,1
209,2,28,1,4,12,1,2,0.451,2
209,2,29,1,1,5,5,5,0.346,1
209,2,30,1,3,7,1,7,0.314,2
209,2,31,1,3,7,1,7,0.341,2
209,2,32,1,2,7,6,2,0.478,1
209,2,33,1,1,5,5,5,0.387,1
209,2,34,1,1,6,5,4,0.428,1
209,2,35,1,4,13,1,1,0.353,2
209,2,36,1,2,7,7,1,0.449,1
209,2,37,1,3,7,2,6,0.283,1
209,2,38,1,4,12,1,2,0.349,2
209,2,39,1,3,7,2,6,0.363,2
209,2,40,1,2,8,6,1,0.479,1
209,2,1,2,1,6,5,4,0.445,1
209,2,2,2,3,7,1,7,0.577,2
209,2,3,2,1,5,5,5,0.492,1
209,2,4,2,3,7,1,7,0.316,2
209,2,5,2,4,11,2,2,0.465,2
209,2,6,2,2,7,7,1,0.739,1
209,2,7,2,2,7,6,2,0.376,1
209,2,8,2,3,8,1,6,0.55,2
209,2,9,2,1,6,4,5,0.333,1
209,2,10,2,4,11,2,2,0.35,2
209,2,11,2,4,13,1,1,0.437,2
209,2,12,2,2,8,6,1,0.587,1
209,2,13,2,2,8,6,1,0.541,1
209,2,14,2,4,13,1,1,0.391,2
209,2,15,2,2,7,7,1,0.297,1
209,2,16,2,2,8,6,1,0.46,1
209,2,17,2,4,12,1,2,0.551,2
209,2,18,2,3,7,2,6,0.58,2
209,2,19,2,3,7,1,7,0.602,2
209,2,20,2,4,12,2,1,0.4,2
209,2,21,2,2,7,6,2,0.504,1
209,2,22,2,3,7,2,6,0.397,2
209,2,23,2,3,7,1,7,0.32,2
209,2,24,2,2,7,7,1,0.424,1
209,2,25,2,3,7,2,6,0.371,2
209,2,26,2,4,11,2,2,0.482,2
209,2,27,2,1,5,5,5,0.556,1
209,2,28,2,4,13,1,1,0.353,2
209,2,29,2,1,6,5,4,0.468,1
209,2,30,2,4,12,2,1,0.486,2
209,2,31,2,1,6,5,4,0.383,1
209,2,32,2,3,8,1,6,0.39,2
209,2,33,2,1,5,5,5,0.607,1
209,2,34,2,2,7,6,2,0.542,1
209,2,35,2,2,7,7,1,0.431,1
209,2,36,2,4,12,1,2,0.372,2
209,2,37,2,3,8,1,6,0.391,2
209,2,38,2,1,6,4,5,0.67,1
209,2,39,2,1,6,4,5,0.562,1
209,2,40,2,1,5,5,5,0.468,1
210,2,1,1,4,11,2,2,0.965,1
210,2,2,1,2,7,7,1,0.863,1
210,2,3,1,4,11,2,2,0.853,1
210,2,4,1,4,13,1,1,0.672,2
210,2,5,1,2,7,6,2,0.535,1
210,2,6,1,1,6,5,4,0.58,1
210,2,7,1,3,7,1,7,0.698,2
210,2,8,1,3,7,1,7,0.58,2
210,2,9,1,4,13,1,1,0.99,2
210,2,10,1,3,8,1,6,0.513,2
210,2,11,1,3,7,2,6,0.522,1
210,2,12,1,2,8,6,1,0.466,1
210,2,13,1,1,5,5,5,0.987,1
210,2,14,1,2,8,6,1,0.967,1
210,2,15,1,1,6,4,5,0.65,1
210,2,16,1,3,7,1,7,2.164,2
210,2,17,1,2,7,7,1,1.076,1
210,2,18,1,4,12,1,2,0.616,2
210,2,19,1,2,8,6,1,0.533,1
210,2,20,1,3,7,2,6,0.455,1
210,2,21,1,3,7,1,7,0.61,2
210,2,22,1,4,12,2,1,1.83,1
210,2,23,1,4,11,2,2,0.603,1
210,2,24,1,4,13,1,1,0.512,2
210,2,25,1,3,7,2,6,0.456,1
210,2,26,1,3,8,1,6,1.308,2
210,2,27,1,1,5,5,5,0.401,1
210,2,28,1,2,7,6,2,0.596,1
210,2,30,1,1,6,5,4,0.347,1
210,2,31,1,1,6,5,4,0.453,1
210,2,32,1,4,12,2,1,0.433,1
210,2,33,1,1,5,5,5,0.524,1
210,2,34,1,2,7,7,1,1.668,1
210,2,35,1,1,6,4,5,0.626,1
210,2,36,1,2,7,6,2,0.717,1
210,2,37,1,2,7,7,1,0.687,1
210,2,38,1,4,12,1,2,0.83,2
210,2,39,1,1,6,4,5,0.589,1
210,2,40,1,1,5,5,5,0.623,1
210,2,1,2,1,6,4,5,0.611,1
210,2,2,2,2,8,6,1,0.543,1
210,2,3,2,3,8,1,6,0.737,2
210,2,4,2,4,13,1,1,0.611,2
210,2,5,2,4,11,2,2,0.642,1
210,2,6,2,2,7,6,2,0.465,1
210,2,7,2,4,13,1,1,0.536,2
210,2,8,2,2,7,7,1,0.398,1
210,2,9,2,1,6,4,5,0.877,1
210,2,10,2,4,11,2,2,0.651,1
210,2,11,2,1,5,5,5,0.439,1
210,2,12,2,4,12,2,1,0.548,1
210,2,13,2,3,7,2,6,0.658,1
210,2,14,2,3,7,1,7,0.558,2
210,2,15,2,2,7,7,1,0.61,1
210,2,16,2,2,7,6,2,0.708,1
210,2,17,2,2,7,7,1,0.706,1
210,2,18,2,1,6,4,5,0.433,1
210,2,19,2,4,11,2,2,0.559,1
210,2,20,2,2,8,6,1,1.102,1
210,2,21,2,3,7,1,7,0.834,2
210,2,22,2,1,6,5,4,0.481,1
210,2,23,2,4,12,2,1,0.573,1
210,2,24,2,3,8,1,6,0.915,2
210,2,25,2,1,5,5,5,0.436,1
210,2,26,2,1,6,5,4,0.53,1
210,2,27,2,4,12,1,2,0.833,2
210,2,28,2,3,8,1,6,1.39,1
210,2,29,2,2,7,6,2,0.423,1
210,2,30,2,4,13,1,1,0.457,2
210,2,31,2,3,7,1,7,0.992,2
210,2,32,2,1,5,5,5,0.486,1
210,2,33,2,1,5,5,5,0.456,1
210,2,34,2,3,7,1,7,1.191,2
210,2,35,2,3,7,2,6,0.701,1
210,2,36,2,2,7,7,1,0.525,1
210,2,37,2,3,7,2,6,0.384,1
210,2,38,2,2,8,6,1,0.492,1
210,2,39,2,4,12,1,2,0.651,2
210,2,40,2,1,6,5,4,0.415,1
211,2,1,1,3,7,1,7,0.678,1
211,2,2,1,4,11,2,2,0.704,1
211,2,3,1,3,7,1,7,0.8,1
211,2,4,1,1,6,5,4,0.609,1
211,2,5,1,4,11,2,2,0.627,1
211,2,6,1,3,8,1,6,0.709,1
211,2,7,1,2,7,7,1,0.602,1
211,2,8,1,1,5,5,5,0.603,1
211,2,9,1,4,13,1,1,0.78,2
211,2,10,1,2,7,6,2,0.701,1
211,2,11,1,4,13,1,1,0.636,2
211,2,12,1,2,8,6,1,0.757,1
211,2,13,1,4,12,1,2,0.648,1
211,2,14,1,2,8,6,1,0.583,1
211,2,15,1,4,12,2,1,0.488,1
211,2,16,1,3,7,2,6,0.483,1
211,2,17,1,1,6,4,5,0.657,1
211,2,18,1,3,7,1,7,0.587,1
211,2,19,1,1,5,5,5,0.591,1
211,2,20,1,2,7,7,1,0.586,1
211,2,21,1,1,6,5,4,0.66,1
211,2,22,1,2,8,6,1,0.496,1
211,2,23,1,3,7,2,6,0.521,1
211,2,24,1,2,7,6,2,0.648,1
211,2,25,1,4,11,2,2,0.554,1
211,2,26,1,3,7,1,7,0.565,1
211,2,27,1,4,13,1,1,0.447,2
211,2,28,1,4,12,2,1,0.595,1
211,2,29,1,1,6,5,4,0.677,1
211,2,30,1,4,12,1,2,0.606,1
211,2,31,1,3,7,2,6,0.623,1
211,2,32,1,3,8,1,6,0.69,1
211,2,33,1,2,7,7,1,0.489,1
211,2,34,1,3,8,1,6,0.527,1
211,2,35,1,2,7,6,2,0.525,1
211,2,36,1,1,5,5,5,0.55,1
211,2,37,1,2,7,7,1,0.538,1
211,2,38,1,1,6,4,5,0.536,1
211,2,39,1,1,6,4,5,0.548,1
211,2,40,1,1,5,5,5,0.528,1
211,2,1,2,1,6,4,5,0.469,1
211,2,2,2,4,13,1,1,0.727,2
211,2,3,2,2,8,6,1,0.608,1
211,2,4,2,1,6,4,5,0.534,1
211,2,5,2,3,8,1,6,0.534,1
211,2,6,2,2,7,6,2,0.587,1
211,2,7,2,4,11,2,2,0.55,1
211,2,8,2,3,7,2,6,0.527,1
211,2,9,2,3,7,1,7,0.835,1
211,2,10,2,4,13,1,1,0.42,2
211,2,11,2,1,5,5,5,0.58,1
211,2,12,2,3,7,1,7,0.807,1
211,2,13,2,1,6,4,5,0.581,1
211,2,14,2,4,11,2,2,0.544,1
211,2,15,2,3,8,1,6,0.659,1
211,2,16,2,2,7,7,1,0.592,1
211,2,17,2,4,12,2,1,0.502,1
211,2,18,2,2,7,7,1,0.671,1
211,2,19,2,2,7,6,2,0.703,1
211,2,20,2,1,6,5,4,0.437,1
211,2,21,2,3,8,1,6,0.504,1
211,2,22,2,2,7,7,1,0.605,1
211,2,23,2,4,11,2,2,0.643,1
211,2,24,2,3,7,1,7,0.632,1
211,2,25,2,1,5,5,5,0.664,1
211,2,26,2,4,12,2,1,0.594,1
211,2,27,2,2,8,6,1,0.499,1
211,2,28,2,1,6,5,4,0.652,1
211,2,29,2,4,12,1,2,0.647,1
211,2,30,2,1,5,5,5,0.647,1
211,2,31,2,2,7,6,2,0.713,1
211,2,32,2,4,13,1,1,0.733,2
211,2,33,2,4,12,1,2,0.666,1
211,2,34,2,1,5,5,5,0.659,1
211,2,35,2,3,7,1,7,0.761,1
211,2,36,2,3,7,2,6,0.59,1
211,2,37,2,2,7,7,1,0.623,1
211,2,38,2,3,7,2,6,0.529,1
211,2,39,2,1,6,5,4,0.839,1
211,2,40,2,2,8,6,1,0.617,1
219,2,1,1,3,7,1,7,0.527,2
219,2,2,1,4,11,2,2,0.477,1
219,2,3,1,3,7,1,7,0.513,2
219,2,4,1,1,6,5,4,0.333,1
219,2,5,1,4,11,2,2,0.364,1
219,2,6,1,3,8,1,6,0.695,2
219,2,7,1,2,7,7,1,0.528,1
219,2,8,1,1,5,5,5,0.31,1
219,2,9,1,4,13,1,1,0.306,1
219,2,10,1,2,7,6,2,0.319,1
219,2,11,1,4,13,1,1,0.322,1
219,2,12,1,2,8,6,1,0.545,1
219,2,13,1,4,12,1,2,0.31,1
219,2,14,1,2,8,6,1,0.496,1
219,2,15,1,4,12,2,1,0.422,1
219,2,16,1,3,7,2,6,0.305,1
219,2,17,1,1,6,4,5,0.522,1
219,2,18,1,3,7,1,7,0.368,2
219,2,19,1,1,5,5,5,0.355,1
219,2,20,1,2,7,7,1,0.364,1
219,2,21,1,1,6,5,4,0.8,1
219,2,22,1,2,8,6,1,0.43,1
219,2,23,1,3,7,2,6,0.511,1
219,2,24,1,2,7,6,2,0.323,1
219,2,25,1,4,11,2,2,0.477,1
219,2,27,1,4,13,1,1,0.337,1
219,2,28,1,4,12,2,1,0.382,1
219,2,29,1,1,6,5,4,0.361,1
219,2,30,1,4,12,1,2,0.354,2
219,2,31,1,3,7,2,6,0.559,1
219,2,32,1,3,8,1,6,0.343,2
219,2,33,1,2,7,7,1,0.346,1
219,2,34,1,3,8,1,6,0.313,2
219,2,35,1,2,7,6,2,0.409,1
219,2,36,1,1,5,5,5,0.32,1
219,2,37,1,2,7,7,1,0.728,1
219,2,38,1,1,6,4,5,1.206,1
219,2,39,1,1,6,4,5,0.397,1
219,2,40,1,1,5,5,5,0.482,1
219,2,1,2,1,6,4,5,0.34,1
219,2,2,2,4,13,1,1,0.341,1
219,2,3,2,2,8,6,1,0.363,1
219,2,4,2,1,6,4,5,0.424,1
219,2,5,2,3,8,1,6,0.467,2
219,2,6,2,2,7,6,2,0.41,1
219,2,7,2,4,11,2,2,0.682,1
219,2,8,2,3,7,2,6,0.426,1
219,2,9,2,3,7,1,7,0.353,2
219,2,10,2,4,13,1,1,0.424,1
219,2,11,2,1,5,5,5,0.427,1
219,2,12,2,3,7,1,7,0.522,1
219,2,13,2,1,6,4,5,0.343,1
219,2,14,2,4,11,2,2,0.557,1
219,2,15,2,3,8,1,6,0.361,1
219,2,16,2,2,7,7,1,0.616,1
219,2,17,2,4,12,2,1,0.598,1
219,2,18,2,2,7,7,1,0.352,1
219,2,19,2,2,7,6,2,0.418,1
219,2,20,2,1,6,5,4,0.745,1
219,2,21,2,3,8,1,6,0.457,1
219,2,22,2,2,7,7,1,0.861,1
219,2,23,2,4,11,2,2,0.449,1
219,2,24,2,3,7,1,7,0.399,1
219,2,25,2,1,5,5,5,0.37,1
219,2,26,2,4,12,2,1,0.688,1
219,2,27,2,2,8,6,1,0.522,1
219,2,28,2,1,6,5,4,0.442,1
219,2,29,2,4,12,1,2,0.38,2
219,2,30,2,1,5,5,5,0.489,1
219,2,31,2,2,7,6,2,0.838,1
219,2,32,2,4,13,1,1,2.734,1
219,2,33,2,4,12,1,2,0.576,2
219,2,34,2,1,5,5,5,0.337,1
219,2,35,2,3,7,1,7,0.554,2
219,2,36,2,3,7,2,6,0.991,1
219,2,37,2,2,7,7,1,0.382,1
219,2,38,2,3,7,2,6,0.451,1
219,2,39,2,1,6,5,4,0.36,1
219,2,40,2,2,8,6,1,0.427,1
212,2,1,1,4,13,1,1,0.611,2
212,2,2,1,3,8,1,6,0.627,2
212,2,3,1,3,7,2,6,0.512,2
212,2,4,1,2,8,6,1,0.602,1
212,2,5,1,3,7,1,7,0.544,2
212,2,6,1,1,6,4,5,0.534,1
212,2,7,1,4,11,2,2,0.837,2
212,2,8,1,1,6,4,5,0.525,1
212,2,9,1,4,13,1,1,0.533,2
212,2,10,1,4,11,2,2,0.898,2
212,2,11,1,4,12,2,1,0.48,2
212,2,12,1,1,5,5,5,0.469,1
212,2,13,1,2,7,6,2,0.933,1
212,2,14,1,1,6,4,5,0.592,1
212,2,15,1,4,11,2,2,0.802,2
212,2,16,1,1,6,5,4,0.673,1
212,2,17,1,4,12,2,1,0.456,2
212,2,18,1,2,7,7,1,0.47,1
212,2,19,1,2,7,7,1,0.788,1
212,2,20,1,1,5,5,5,0.608,1
212,2,21,1,2,7,6,2,0.582,1
212,2,22,1,3,7,1,7,0.832,2
212,2,23,1,3,8,1,6,0.774,2
212,2,24,1,2,7,7,1,0.603,1
212,2,25,1,3,8,1,6,0.605,2
212,2,26,1,3,7,1,7,0.417,2
212,2,27,1,1,6,5,4,0.717,1
212,2,28,1,2,8,6,1,0.389,1
212,2,29,1,3,7,1,7,1.029,2
212,2,30,1,1,5,5,5,0.513,1
212,2,31,1,2,7,6,2,0.951,1
212,2,32,1,4,12,1,2,0.651,2
212,2,33,1,2,7,7,1,0.542,1
212,2,34,1,4,13,1,1,1.296,2
212,2,35,1,2,8,6,1,0.902,1
212,2,36,1,4,12,1,2,1.165,2
212,2,37,1,1,5,5,5,0.652,1
212,2,38,1,3,7,2,6,1.703,2
212,2,39,1,1,6,5,4,0.651,1
212,2,40,1,3,7,2,6,1.376,2
212,2,1,2,3,7,1,7,0.577,2
212,2,2,2,1,6,5,4,0.639,1
212,2,3,2,4,11,2,2,0.676,2
212,2,4,2,2,7,7,1,1.497,1
212,2,5,2,4,11,2,2,1.182,2
212,2,6,2,1,5,5,5,0.837,1
212,2,7,2,1,6,4,5,0.633,1
212,2,8,2,2,7,6,2,0.598,1
212,2,9,2,2,8,6,1,0.708,1
212,2,10,2,1,5,5,5,0.642,1
212,2,11,2,4,13,1,1,0.891,2
212,2,12,2,4,13,1,1,0.726,2
212,2,13,2,4,12,1,2,0.673,2
212,2,14,2,3,7,1,7,1.32,2
212,2,15,2,2,8,6,1,0.72,1
212,2,16,2,3,8,1,6,0.897,2
212,2,17,2,1,6,5,4,0.582,1
212,2,18,2,2,7,7,1,0.923,1
212,2,19,2,2,8,6,1,0.512,1
212,2,20,2,4,12,2,1,0.551,2
212,2,21,2,3,7,2,6,1.281,2
212,2,22,2,4,11,2,2,1.264,2
212,2,23,2,1,6,5,4,0.686,1
212,2,24,2,1,5,5,5,0.688,1
212,2,25,2,3,7,1,7,0.557,2
212,2,26,2,2,7,6,2,1.102,1
212,2,27,2,1,6,4,5,0.634,1
212,2,28,2,4,13,1,1,1.02,2
212,2,29,2,3,7,2,6,0.942,2
212,2,30,2,1,6,4,5,0.567,1
212,2,31,2,2,7,7,1,0.783,1
212,2,32,2,3,7,1,7,0.668,2
212,2,33,2,2,7,6,2,0.634,1
212,2,34,2,2,7,7,1,0.638,1
212,2,35,2,3,7,2,6,0.638,2
212,2,36,2,3,8,1,6,0.52,2
212,2,37,2,4,12,2,1,0.743,2
212,2,38,2,4,12,1,2,1.003,2
212,2,39,2,1,5,5,5,0.689,1
212,2,40,2,3,8,1,6,1.837,2
213,2,1,1,2,8,6,1,0.794,1
213,2,2,1,2,7,6,2,0.575,1
213,2,3,1,4,13,1,1,0.584,2
213,2,4,1,3,8,1,6,0.642,1
213,2,5,1,4,11,2,2,0.624,2
213,2,6,1,1,6,4,5,0.836,1
213,2,7,1,4,13,1,1,0.558,2
213,2,8,1,1,6,4,5,0.772,1
213,2,9,1,3,7,2,6,0.629,1
213,2,10,1,1,5,5,5,0.764,1
213,2,11,1,1,6,4,5,0.738,1
213,2,12,1,4,11,2,2,0.646,1
213,2,13,1,3,7,1,7,0.372,2
213,2,14,1,3,7,1,7,0.603,2
213,2,15,1,2,7,7,1,0.978,1
213,2,16,1,2,7,7,1,0.567,1
213,2,17,1,4,12,2,1,0.369,2
213,2,18,1,3,8,1,6,0.583,1
213,2,19,1,1,6,5,4,0.561,1
213,2,20,1,4,11,2,2,0.446,1
213,2,21,1,4,12,2,1,0.584,2
213,2,22,1,1,5,5,5,0.632,1
213,2,23,1,1,6,5,4,0.72,1
213,2,24,1,2,7,6,2,0.629,1
213,2,25,1,3,8,1,6,0.399,1
213,2,26,1,2,7,7,1,0.711,1
213,2,27,1,2,8,6,1,0.354,1
213,2,28,1,4,12,1,2,0.596,2
213,2,29,1,1,5,5,5,0.443,1
213,2,30,1,3,7,1,7,0.403,1
213,2,31,1,3,7,1,7,0.437,1
213,2,32,1,2,7,6,2,0.743,1
213,2,33,1,1,5,5,5,0.388,1
213,2,34,1,1,6,5,4,0.525,1
213,2,35,1,4,13,1,1,0.417,2
213,2,36,1,2,7,7,1,0.569,1
213,2,37,1,3,7,2,6,0.692,1
213,2,38,1,4,12,1,2,0.726,2
213,2,39,1,3,7,2,6,0.628,1
213,2,40,1,2,8,6,1,0.912,1
213,2,1,2,1,6,5,4,0.775,1
213,2,2,2,3,7,1,7,0.683,1
213,2,3,2,1,5,5,5,0.477,1
213,2,4,2,3,7,1,7,0.694,1
213,2,5,2,4,11,2,2,0.571,2
213,2,6,2,2,7,7,1,0.757,1
213,2,7,2,2,7,6,2,0.882,1
213,2,8,2,3,8,1,6,0.552,1
213,2,9,2,1,6,4,5,0.855,1
213,2,10,2,4,11,2,2,0.696,2
213,2,11,2,4,13,1,1,0.631,2
213,2,12,2,2,8,6,1,0.957,1
213,2,13,2,2,8,6,1,0.455,1
213,2,14,2,4,13,1,1,0.601,2
213,2,15,2,2,7,7,1,0.811,1
213,2,16,2,2,8,6,1,0.71,1
213,2,17,2,4,12,1,2,0.672,2
213,2,18,2,3,7,2,6,0.669,1
213,2,19,2,3,7,1,7,0.46,1
213,2,20,2,4,12,2,1,0.689,2
213,2,21,2,2,7,6,2,0.626,1
213,2,22,2,3,7,2,6,0.751,1
213,2,23,2,3,7,1,7,0.626,1
213,2,24,2,2,7,7,1,0.73,1
213,2,25,2,3,7,2,6,0.693,1
213,2,26,2,4,11,2,2,0.612,2
213,2,27,2,1,5,5,5,0.71,1
213,2,28,2,4,13,1,1,0.954,2
213,2,29,2,1,6,5,4,0.79,1
213,2,30,2,4,12,2,1,0.552,2
213,2,31,2,1,6,5,4,0.593,1
213,2,32,2,3,8,1,6,0.6,1
213,2,33,2,1,5,5,5,0.521,1
213,2,34,2,2,7,6,2,0.704,1
213,2,35,2,2,7,7,1,0.745,1
213,2,36,2,4,12,1,2,0.558,2
213,2,37,2,3,8,1,6,0.817,1
213,2,38,2,1,6,4,5,0.744,1
213,2,39,2,1,6,4,5,1.101,1
213,2,40,2,1,5,5,5,0.518,1
214,2,1,1,4,11,2,2,0.494,2
214,2,2,1,2,7,7,1,0.321,1
214,2,3,1,4,11,2,2,0.607,2
214,2,4,1,4,13,1,1,0.806,2
214,2,5,1,2,7,6,2,0.608,1
214,2,6,1,1,6,5,4,0.805,1
214,2,7,1,3,7,1,7,0.582,2
214,2,8,1,3,7,1,7,0.585,2
214,2,9,1,4,13,1,1,0.574,2
214,2,10,1,3,8,1,6,0.626,2
214,2,11,1,3,7,2,6,0.545,1
214,2,12,1,2,8,6,1,0.526,1
214,2,13,1,1,5,5,5,0.505,1
214,2,14,1,2,8,6,1,0.466,1
214,2,15,1,1,6,4,5,0.585,1
214,2,16,1,3,7,1,7,0.568,2
214,2,17,1,2,7,7,1,0.578,1
214,2,18,1,4,12,1,2,0.545,2
214,2,19,1,2,8,6,1,0.62,1
214,2,20,1,3,7,2,6,0.399,2
214,2,21,1,3,7,1,7,0.449,2
214,2,22,1,4,12,2,1,0.412,2
214,2,23,1,4,11,2,2,0.566,2
214,2,24,1,4,13,1,1,0.576,2
214,2,25,1,3,7,2,6,0.552,1
214,2,26,1,3,8,1,6,0.587,2
214,2,27,1,1,5,5,5,0.591,1
214,2,28,1,2,7,6,2,0.627,1
214,2,29,1,3,8,1,6,0.657,2
214,2,30,1,1,6,5,4,0.533,1
214,2,31,1,1,6,5,4,0.645,1
214,2,32,1,4,12,2,1,0.549,2
214,2,33,1,1,5,5,5,0.659,1
214,2,34,1,2,7,7,1,0.642,1
214,2,35,1,1,6,4,5,0.648,1
214,2,36,1,2,7,6,2,0.662,1
214,2,37,1,2,7,7,1,0.451,1
214,2,38,1,4,12,1,2,0.888,2
214,2,39,1,1,6,4,5,0.615,1
214,2,40,1,1,5,5,5,0.529,1
214,2,1,2,1,6,4,5,0.597,1
214,2,2,2,2,8,6,1,0.689,1
214,2,3,2,3,8,1,6,0.413,2
214,2,4,2,4,13,1,1,0.608,2
214,2,5,2,4,11,2,2,0.752,2
214,2,6,2,2,7,6,2,0.655,1
214,2,7,2,4,13,1,1,0.595,2
214,2,8,2,2,7,7,1,0.598,1
214,2,9,2,1,6,4,5,0.609,1
214,2,10,2,4,11,2,2,1.079,2
214,2,11,2,1,5,5,5,0.976,1
214,2,12,2,4,12,2,1,0.583,1
214,2,13,2,3,7,2,6,0.552,1
214,2,14,2,3,7,1,7,0.711,2
214,2,15,2,2,7,7,1,1.125,1
214,2,16,2,2,7,6,2,0.633,1
214,2,17,2,2,7,7,1,0.58,1
214,2,18,2,1,6,4,5,0.579,1
214,2,19,2,4,11,2,2,0.662,1
214,2,20,2,2,8,6,1,0.594,1
214,2,21,2,3,7,1,7,0.819,2
214,2,22,2,1,6,5,4,0.532,1
214,2,23,2,4,12,2,1,0.685,2
214,2,24,2,3,8,1,6,0.441,2
214,2,25,2,1,5,5,5,1.456,1
214,2,26,2,1,6,5,4,2.361,1
214,2,27,2,4,12,1,2,0.697,2
214,2,28,2,3,8,1,6,0.615,2
214,2,29,2,2,7,6,2,0.368,1
214,2,30,2,4,13,1,1,0.596,2
214,2,31,2,3,7,1,7,0.591,2
214,2,32,2,1,5,5,5,0.463,1
214,2,33,2,1,5,5,5,0.578,1
214,2,34,2,3,7,1,7,1.043,2
214,2,35,2,3,7,2,6,0.857,1
214,2,36,2,2,7,7,1,0.521,1
214,2,37,2,3,7,2,6,0.556,1
214,2,38,2,2,8,6,1,0.552,1
214,2,39,2,4,12,1,2,0.824,2
214,2,40,2,1,6,5,4,0.888,1
216,2,1,1,4,13,1,1,0.536,2
216,2,2,1,3,8,1,6,0.424,2
216,2,3,1,3,7,2,6,0.54,1
216,2,4,1,2,8,6,1,0.486,1
216,2,5,1,3,7,1,7,0.54,2
216,2,6,1,1,6,4,5,0.514,1
216,2,7,1,4,11,2,2,0.377,1
216,2,8,1,1,6,4,5,0.489,1
216,2,9,1,4,13,1,1,0.386,2
216,2,10,1,4,11,2,2,0.606,1
216,2,11,1,4,12,2,1,0.436,1
216,2,12,1,1,5,5,5,0.529,1
216,2,13,1,2,7,6,2,0.514,1
216,2,14,1,1,6,4,5,0.461,1
216,2,15,1,4,11,2,2,0.502,1
216,2,16,1,1,6,5,4,0.629,1
216,2,17,1,4,12,2,1,0.676,1
216,2,18,1,2,7,7,1,0.587,1
216,2,19,1,2,7,7,1,0.448,1
216,2,20,1,1,5,5,5,0.74,1
216,2,21,1,2,7,6,2,0.514,1
216,2,22,1,3,7,1,7,0.932,2
216,2,23,1,3,8,1,6,0.61,2
216,2,24,1,2,7,7,1,0.488,1
216,2,25,1,3,8,1,6,0.642,2
216,2,26,1,3,7,1,7,0.51,2
216,2,27,1,1,6,5,4,0.578,1
216,2,28,1,2,8,6,1,0.729,1
216,2,29,1,3,7,1,7,1.009,1
216,2,30,1,1,5,5,5,1.085,1
216,2,31,1,2,7,6,2,0.667,1
216,2,32,1,4,12,1,2,1.168,2
216,2,33,1,2,7,7,1,0.578,1
216,2,34,1,4,13,1,1,1.116,2
216,2,35,1,2,8,6,1,0.731,1
216,2,36,1,4,12,1,2,0.905,1
216,2,37,1,1,5,5,5,0.76,1
216,2,38,1,3,7,2,6,0.395,1
216,2,39,1,1,6,5,4,0.375,1
216,2,40,1,3,7,2,6,0.66,1
216,2,1,2,3,7,1,7,0.49,1
216,2,2,2,1,6,5,4,0.456,1
216,2,3,2,4,11,2,2,0.597,1
216,2,4,2,2,7,7,1,0.77,1
216,2,5,2,4,11,2,2,0.864,1
216,2,6,2,1,5,5,5,0.694,1
216,2,7,2,1,6,4,5,0.594,1
216,2,8,2,2,7,6,2,0.751,1
216,2,9,2,2,8,6,1,0.525,1
216,2,10,2,1,5,5,5,0.675,1
216,2,11,2,4,13,1,1,0.524,2
216,2,12,2,4,13,1,1,0.543,2
216,2,13,2,4,12,1,2,2.122,2
216,2,14,2,3,7,1,7,0.649,1
216,2,15,2,2,8,6,1,1.417,1
216,2,16,2,3,8,1,6,1.643,1
216,2,17,2,1,6,5,4,0.615,1
216,2,18,2,2,7,7,1,0.613,1
216,2,19,2,2,8,6,1,1.025,1
216,2,20,2,4,12,2,1,0.536,1
216,2,21,2,3,7,2,6,1.57,1
216,2,22,2,4,11,2,2,1.257,1
216,2,23,2,1,6,5,4,0.695,1
216,2,24,2,1,5,5,5,0.649,1
216,2,25,2,3,7,1,7,2.286,1
216,2,26,2,2,7,6,2,0.519,1
216,2,27,2,1,6,4,5,0.483,1
216,2,28,2,4,13,1,1,0.604,2
216,2,29,2,3,7,2,6,0.591,1
216,2,30,2,1,6,4,5,1.424,1
216,2,31,2,2,7,7,1,0.488,1
216,2,32,2,3,7,1,7,0.501,1
216,2,33,2,2,7,6,2,0.827,1
216,2,34,2,2,7,7,1,0.855,1
216,2,35,2,3,7,2,6,0.935,1
216,2,37,2,4,12,2,1,0.44,1
216,2,38,2,4,12,1,2,1.46,2
216,2,39,2,1,5,5,5,0.538,1
216,2,40,2,3,8,1,6,0.638,1
